time,seconds_elapsed,z,y,x
1702338674066500900,0.0825009765625,-0.2085999995470047,-0.09369999915361404,0.3131999969482422
1702338674165764900,0.181764892578125,2.47189998626709,0.08810000121593475,-0.48919999599456787
1702338674265027600,0.281027587890625,0.3441999852657318,-1.7252999544143677,-1.9600999355316162
1702338674364291600,0.38029150390625,2.846299886703491,1.0189999341964722,-0.7502999901771545
1702338674463554000,0.479553955078125,-2.3041000366210938,0.7495999932289124,0.8211999535560608
1702338674562816500,0.57881640625,0.09179999679327011,0.0279999990016222,0.7495999932289124
1702338674662080500,0.67808056640625,-1.0763999223709106,-0.19659999012947083,-2.0532000064849854
1702338674761343000,0.777343017578125,-0.2969000041484833,0.007400000002235174,-1.17330002784729
1702338674860605700,0.876605712890625,-0.2556000053882599,-0.22899998724460602,0.36879998445510864
1702338674959869700,0.97586962890625,2.3169000148773193,1.4328999519348145,-2.037099838256836
1702338675059132200,1.075132080078125,-0.5406999588012695,0.6256999969482422,0.0697999969124794
1702338675158396200,1.174396240234375,3.0112998485565186,0.45979997515678406,-0.25189998745918274
1702338675257658600,1.27365869140625,2.161099910736084,-0.7475999593734741,1.661099910736084
1702338675356923000,1.3729228515625,-0.604699969291687,0.5458999872207642,0.5945000052452087
1702338675456185300,1.472185302734375,-1.2389999628067017,0.17260000109672546,0.6542999744415283
1702338675555449300,1.571449462890625,-1.663100004196167,-0.3537999987602234,1.399899959564209
1702338675654713300,1.67071337890625,0.1030999943614006,-0.05900000035762787,1.6755999326705933
1702338675753975800,1.769975830078125,-1.272499918937683,-0.9449999928474426,0.9786999821662903
1702338675853238500,1.869238525390625,-2.467399835586548,-0.5460000038146973,0.8015999794006348
1702338675952502500,1.96850244140625,0.35019999742507935,-0.17430000007152557,-0.49129998683929443
1702338676051766500,2.0677666015625,-1.2898999452590942,-0.29420000314712524,2.4326999187469482
1702338676151029000,2.167029052734375,-0.08150000125169754,-0.5113999843597412,-0.7003999948501587
1702338676250291500,2.26629150390625,0.8770999908447266,-0.6966999769210815,-1.94979989528656
1702338676349554000,2.365553955078125,-1.3075000047683716,1.3837999105453491,0.36789998412132263
1702338676448818200,2.464818115234375,0.4113999903202057,-1.1024999618530273,0.9133999943733215
1702338676548080600,2.56408056640625,-0.8118999600410461,0.8636999726295471,-0.7858999967575073
1702338676647344600,2.6633447265625,1.2026000022888184,-0.0828000009059906,-0.4147999882698059
1702338676746607000,2.762607177734375,1.506500005722046,0.04859999939799309,-0.12870000302791595
1702338676845871000,2.86187109375,0.0052999998442828655,0.1882999986410141,-0.2272999882698059
1702338676945133800,2.9611337890625,0.0038999998942017555,0.13570000231266022,-0.13849999010562897
1702338677044397800,3.060397705078125,-0.016099998727440834,0.1200999990105629,-0.10649999976158142
1702338677143660300,3.159660400390625,-0.02589999884366989,0.09049999713897705,-0.10579999536275864
1702338677242924300,3.25892431640625,-0.016099998727440834,0.09030000120401382,-0.10489999502897263
1702338677342186800,3.358186767578125,-0.02589999884366989,0.09959999471902847,-0.11339999735355377
1702338677441449500,3.457449462890625,-0.016099998727440834,0.11859999597072601,-0.1021999940276146
1702338677540713500,3.55671337890625,-0.016099998727440834,0.10869999974966049,-0.10080000013113022
1702338677639976000,3.655975830078125,-0.03579999879002571,0.09829999506473541,-0.11879999935626984
1702338677739240000,3.755239990234375,-0.03579999879002571,0.09709999710321426,-0.08760000020265579
1702338677838502400,3.85450244140625,-0.025999998673796654,0.10019999742507935,-0.0997999981045723
1702338677937766700,3.9537666015625,-0.026099998503923416,0.0835999995470047,-0.10099999606609344
1702338678037029000,4.053029052734375,-0.04569999873638153,0.08789999783039093,-0.07479999959468842
1702338678136293000,4.152293212890625,-0.026099998503923416,0.07229999452829361,-0.08749999850988388
1702338678235554000,4.251553955078125,-0.026099998503923416,0.07679999619722366,-0.0714000016450882
1702338678334818000,4.350818115234375,-0.026099998503923416,0.09019999951124191,-0.054999999701976776
1702338678434082000,4.45008203125,-0.03579999879002571,0.05639999732375145,-0.06030000001192093
1702338678533346300,4.54934619140625,-0.025999998673796654,0.05199999734759331,-0.055799998342990875
1702338678632608800,4.64860888671875,-0.025999998673796654,0.05819999799132347,-0.04129999876022339
1702338678731871200,4.747871337890625,-0.02589999884366989,0.04399999976158142,-0.0471000000834465
1702338678831135200,4.84713525390625,-0.02589999884366989,0.0502999983727932,-0.042899999767541885
1702338678930397700,4.946397705078125,-0.045499999076128006,0.04769999906420708,-0.03920000046491623
1702338679029660400,5.045660400390625,-0.016099998727440834,0.044199999421834946,-0.026099998503923416
1702338679128924400,5.14492431640625,-0.045499999076128006,0.03189999982714653,-0.0421999990940094
1702338679228187000,5.244186767578125,-0.02579999901354313,0.029199998825788498,-0.02969999983906746
1702338679327451000,5.343450927734375,-0.035599999129772186,0.016899999231100082,-0.01730000041425228
1702338679426715000,5.44271484375,-0.045399997383356094,0.02449999935925007,-0.02459999918937683
1702338679525977600,5.5419775390625,-0.045399997383356094,0.041999999433755875,-0.021900000050663948
1702338679625240000,5.641239990234375,-0.045399997383356094,0.0210999995470047,-0.019899999722838402
1702338679724502500,5.74050244140625,-0.025699999183416367,0.019199999049305916,-0.01759999990463257
1702338679823766500,5.8397666015625,-0.04529999941587448,0.026799999177455902,-0.015699999406933784
1702338679923029000,5.939029052734375,-0.015799999237060547,0.025100000202655792,-0.014999999664723873
1702338680022293000,6.03829296875,-0.03539999946951866,0.00419999985024333,-0.0050999997183680534
1702338680121557200,6.13755712890625,-0.03539999946951866,0.013299999758601189,-0.0044999998062849045
1702338680220819700,6.23681982421875,-0.03539999946951866,0.002699999837204814,0.005699999630451202
1702338680320083700,6.336083740234375,-0.03539999946951866,0.001999999862164259,-0.012899999506771564
1702338680419346200,6.43534619140625,-0.025599999353289604,0.030299998819828033,-0.021699998527765274
1702338680518610200,6.534610107421875,-0.03529999777674675,0.019099999219179153,-0.020999999716877937
1702338680617871000,6.63387109375,-0.025499999523162842,0.01769999973475933,-0.02070000022649765
1702338680717135400,6.73313525390625,-0.03529999777674675,-0.002199999988079071,-0.0004999999655410647
1702338680816399400,6.8323994140625,-0.045099999755620956,-0.01269999984651804,-0.009999999776482582
1702338680915661800,6.931661865234375,-0.045099999755620956,0.006599999964237213,-0.009999999776482582
1702338681014924300,7.03092431640625,-0.025499999523162842,-0.003599999938160181,-0.008799999952316284
1702338681114188500,7.1301884765625,-0.054899998009204865,0.025100000202655792,-0.008799999952316284
1702338681213451000,7.229450927734375,-0.03529999777674675,0.004999999888241291,-0.008799999952316284
1702338681312715000,7.328715087890625,-0.02539999969303608,-0.0050999997183680534,-0.01809999905526638
1702338681411977500,7.4279775390625,-0.054899998009204865,0.013799999840557575,-0.007899999618530273
1702338681511241500,7.527241455078125,-0.044999998062849045,0.0032999999821186066,0.0017999999690800905
1702338681610504000,7.62650390625,-0.02539999969303608,0.002899999963119626,-0.0071000000461936
1702338681709768200,7.725768310546875,-0.015599999576807022,0.012399999424815178,-0.006799999624490738
1702338681809030700,7.82503076171875,-0.03519999980926514,0.0018999999156221747,0.003000000026077032
1702338681908294700,7.924294677734375,-0.02539999969303608,0.0018999999156221747,-0.006399999838322401
1702338682007557000,8.02355712890625,-0.044999998062849045,0.00139999995008111,0.003599999938160181
1702338682106821000,8.122821044921874,-0.044999998062849045,-0.008799999952316284,-0.0058999997563660145
1702338682206083800,8.222083740234375,-0.03519999980926514,0.00029999998514540493,0.004399999976158142
1702338682305347800,8.321347900390625,-0.02539999969303608,-0.009399999864399433,-0.004900000058114529
1702338682404610300,8.4206103515625,-0.02539999969303608,0.009499999694526196,-0.004299999680370092
1702338682503872800,8.519872802734374,-0.04490000009536743,0.008700000122189522,-0.004299999680370092
1702338682603136800,8.61913671875,-0.035099998116493225,-0.0016999999061226845,-0.003599999938160181
1702338682702399200,8.718399169921875,-0.035099998116493225,-0.01119999960064888,0.0058999997563660145
1702338682801663500,8.81766357421875,-0.035099998116493225,-0.010799999348819256,0.005499999970197678
1702338682900926000,8.916926025390625,-0.035099998116493225,0.017999999225139618,-0.013700000010430813
1702338683000190000,9.01618994140625,-0.025299999862909317,0.007899999618530273,-0.003999999724328518
1702338683099452400,9.115452392578124,-0.05469999834895134,0.01719999872148037,-0.00419999985024333
1702338683198715000,9.21471484375,-0.035099998116493225,-0.002899999963119626,-0.004100000020116568
1702338683297979100,9.313979248046875,-0.04490000009536743,-0.0031999999191612005,-0.013299999758601189
1702338683397241600,9.41324169921875,-0.035099998116493225,0.006300000008195639,-0.00419999985024333
1702338683496505600,9.512505615234375,-0.035099998116493225,-0.003499999875202775,0.005699999630451202
1702338683595768000,9.61176806640625,-0.025299999862909317,-0.013199999928474426,-0.003000000026077032
1702338683695032000,9.711031982421876,-0.035099998116493225,-0.00279999990016222,-0.0030999998562037945
1702338683794294800,9.810294677734374,-0.035099998116493225,-0.00279999990016222,-0.012600000016391277
1702338683893558800,9.909558837890625,-0.05469999834895134,-0.013100000098347664,-0.0024999999441206455
1702338683992821200,10.0088212890625,-0.04490000009536743,-0.003700000001117587,-0.012000000104308128
1702338684092085200,10.108085205078124,-0.05469999834895134,0.006000000052154064,0.007499999832361937
1702338684191347700,10.20734765625,-0.035099998116493225,-0.003700000001117587,0.007799999788403511
1702338684290612000,10.306612060546875,-0.05469999834895134,-0.0037999998312443495,-0.0015999999595806003
1702338684389874400,10.40587451171875,-0.04490000009536743,-0.003700000001117587,0.007899999618530273
1702338684489138400,10.505138427734375,-0.04490000009536743,-0.003000000026077032,-0.011299999430775642
1702338684588401000,10.60440087890625,-0.05469999834895134,0.006000000052154064,-0.00139999995008111
1702338684687665000,10.703664794921876,-0.035099998116493225,0.006300000008195639,-0.0010999999940395355
1702338684786927400,10.80292724609375,-0.035099998116493225,0.006099999882280827,0.007999999448657036
1702338684886190000,10.902190185546875,-0.04490000009536743,-0.003700000001117587,0.01759999990463257
1702338684985454000,11.0014541015625,-0.035099998116493225,-0.00419999985024333,-0.011299999430775642
1702338685084716500,11.100716552734376,-0.04490000009536743,0.00559999980032444,0.007999999448657036
1702338685183980500,11.19998046875,-0.04490000009536743,-0.004100000020116568,0.007899999618530273
1702338685283243000,11.299242919921875,-0.035099998116493225,0.005499999970197678,-0.001500000013038516
1702338685382507300,11.39850732421875,-0.035099998116493225,-0.013700000010430813,-0.011599999852478504
1702338685481769700,11.497769775390625,-0.04490000009536743,-0.013299999758601189,0.0072999997064471245
1702338685581033700,11.59703369140625,-0.025299999862909317,-0.0038999998942017555,0.0071000000461936
1702338685680296200,11.696296142578126,-0.035099998116493225,0.0052999998442828655,-0.0026000000070780516
1702338685779560200,11.795560302734375,-0.025200000032782555,-0.004699999932199717,-0.0024999999441206455
1702338685878823000,11.894822998046875,-0.04490000009536743,-0.004399999976158142,0.01599999889731407
1702338685978085400,11.99408544921875,-0.04479999840259552,-0.004600000102072954,0.0058999997563660145
1702338686077347800,12.093347900390626,-0.035099998116493225,0.005399999674409628,-0.0031999999191612005
1702338686176611800,12.19261181640625,-0.035099998116493225,-0.003999999724328518,0.0066999997943639755
1702338686275875800,12.291875732421875,-0.035099998116493225,0.005499999970197678,-0.003000000026077032
1702338686375138300,12.39113818359375,-0.015399999916553497,-0.004600000102072954,0.0064999996684491634
1702338686474401000,12.490401123046874,-0.025200000032782555,0.004999999888241291,-0.00279999990016222
1702338686573665000,12.5896650390625,-0.03500000014901161,-0.014999999664723873,-0.002699999837204814
1702338686672927500,12.688927490234375,-0.03500000014901161,-0.005399999674409628,-0.01249999925494194
1702338686772191500,12.78819140625,-0.04479999840259552,0.0037999998312443495,0.006399999838322401
1702338686871455500,12.88745556640625,-0.03500000014901161,-0.006099999882280827,-0.012899999506771564
1702338686970718200,12.98671826171875,-0.03500000014901161,-0.006000000052154064,-0.0023999998811632395
1702338687069982200,13.085982177734374,-0.025200000032782555,-0.00559999980032444,-0.0017999999690800905
1702338687169244700,13.18524462890625,-0.025200000032782555,-0.004999999888241291,0.0072999997064471245
1702338687268507100,13.284507080078125,-0.015399999916553497,-0.005200000014156103,0.007400000002235174
1702338687367771100,13.383771240234376,-0.025200000032782555,-0.005200000014156103,0.007899999618530273
1702338687467035400,13.483035400390625,-0.04490000009536743,-0.014800000004470348,-0.002099999925121665
1702338687566297900,13.5822978515625,-0.025200000032782555,0.004399999976158142,0.0072999997064471245
1702338687665560300,13.681560302734376,-0.04479999840259552,-0.005200000014156103,-0.001999999862164259
1702338687764822800,13.78082275390625,-0.03500000014901161,-0.015199999324977398,-0.00139999995008111
1702338687864086800,13.880086669921875,-0.04479999840259552,0.013799999840557575,0.007899999618530273
1702338687963349200,13.979349365234375,-0.03500000014901161,-0.005799999926239252,0.01679999940097332
1702338688062613500,14.078613525390624,-0.03500000014901161,0.013599999248981476,-0.0030999998562037945
1702338688161877500,14.17787744140625,-0.025200000032782555,-0.00559999980032444,-0.013299999758601189
1702338688261140000,14.277139892578125,-0.025200000032782555,-0.005799999926239252,0.01599999889731407
1702338688360402400,14.37640234375,-0.04479999840259552,-0.005499999970197678,0.006300000008195639
1702338688459666400,14.47566650390625,-0.03500000014901161,-0.015399999916553497,0.015799999237060547
1702338688558929200,14.57492919921875,-0.03500000014901161,0.013899999670684338,0.005699999630451202
1702338688658193200,14.674193115234376,-0.03500000014901161,-0.0052999998442828655,-0.00419999985024333
1702338688757455600,14.77345556640625,-0.03500000014901161,-0.0052999998442828655,-0.004699999932199717
1702338688856718000,14.872718017578125,-0.03500000014901161,0.003999999724328518,0.004699999932199717
1702338688955982000,14.971982177734375,-0.03500000014901161,-0.006000000052154064,0.0044999998062849045
1702338689055246300,15.071246337890624,-0.025200000032782555,-0.0058999997563660145,-0.015399999916553497
1702338689154508800,15.1705087890625,-0.025200000032782555,-0.01529999915510416,0.0037999998312443495
1702338689253771300,15.269771240234375,-0.04479999840259552,-0.005499999970197678,0.003999999724328518
1702338689353035300,15.36903515625,-0.025200000032782555,-0.004999999888241291,0.003700000001117587
1702338689452297700,15.468297607421874,-0.025200000032782555,-0.004799999762326479,-0.015399999916553497
1702338689551561700,15.567561767578125,-0.03500000014901161,0.014499999582767487,-0.01589999906718731
1702338689650824400,15.666824462890625,-0.04479999840259552,0.0044999998062849045,-0.006000000052154064
1702338689750088400,15.76608837890625,-0.04479999840259552,-0.01489999983459711,-0.006199999712407589
1702338689849352400,15.8653525390625,-0.025200000032782555,-0.0050999997183680534,-0.006199999712407589
1702338689948613400,15.96461328125,-0.025200000032782555,-0.01549999974668026,-0.005799999926239252
1702338690047877400,16.06387744140625,-0.03500000014901161,-0.005499999970197678,0.013599999248981476
1702338690147141600,16.1631416015625,-0.03500000014901161,-0.01529999915510416,-0.01549999974668026
1702338690246404000,16.262404052734375,-0.03500000014901161,0.003399999812245369,-0.005200000014156103
1702338690345668000,16.361668212890624,-0.025200000032782555,0.003599999938160181,-0.005399999674409628
1702338690444930600,16.4609306640625,-0.025200000032782555,-0.006300000008195639,-0.004799999762326479
1702338690544193000,16.560193115234377,-0.04479999840259552,-0.006000000052154064,0.0050999997183680534
1702338690643457300,16.659457275390626,-0.03500000014901161,0.002899999963119626,0.0044999998062849045
1702338690742719700,16.7587197265625,-0.03500000014901161,0.0031999999191612005,0.003399999812245369
1702338690841983700,16.857983642578127,-0.03500000014901161,-0.006799999624490738,-0.0058999997563660145
1702338690941246200,16.95724609375,-0.025200000032782555,-0.006599999964237213,0.003599999938160181
1702338691040510200,17.05651025390625,-0.04479999840259552,-0.006799999624490738,0.012600000016391277
1702338691139772700,17.155772705078125,-0.03500000014901161,0.00279999990016222,-0.006099999882280827
1702338691239035400,17.255035400390625,-0.03500000014901161,0.00279999990016222,0.013799999840557575
1702338691338299400,17.35429931640625,-0.025200000032782555,-0.006899999920278788,0.003999999724328518
1702338691437561900,17.453561767578126,-0.03500000014901161,-0.00699999975040555,0.004600000102072954
1702338691536825900,17.552825927734375,-0.025100000202655792,0.002199999988079071,0.0044999998062849045
1702338691636088300,17.65208837890625,-0.05460000038146973,-0.007199999876320362,-0.004999999888241291
1702338691735352600,17.7513525390625,-0.025200000032782555,-0.0071000000461936,-0.00419999985024333
1702338691834615000,17.850614990234376,-0.025100000202655792,0.002199999988079071,0.004999999888241291
1702338691933879000,17.949879150390625,-0.04479999840259552,-0.007599999662488699,0.005499999970197678
1702338692033141500,18.0491416015625,-0.025200000032782555,-0.007400000002235174,-0.013899999670684338
1702338692132404000,18.148404052734374,-0.01529999915510416,-0.0072999997064471245,0.0052999998442828655
1702338692231668200,18.247668212890623,-0.03500000014901161,0.012299999594688416,0.005499999970197678
1702338692330930700,18.3469306640625,-0.04479999840259552,-0.00699999975040555,-0.00419999985024333
1702338692430194700,18.446194580078124,-0.04479999840259552,0.012199999764561653,0.005799999926239252
1702338692529457200,18.54545703125,-0.025200000032782555,0.011799999512732029,-0.013399999588727951
1702338692628721200,18.64472119140625,-0.03500000014901161,-0.01719999872148037,-0.0037999998312443495
1702338692727983600,18.743983642578126,-0.05460000038146973,0.01209999993443489,0.006000000052154064
1702338692827246300,18.843246337890626,-0.03500000014901161,-0.007499999832361937,-0.0038999998942017555
1702338692926510300,18.94251025390625,-0.03500000014901161,-0.007199999876320362,-0.013799999840557575
1702338693025774300,19.0417744140625,-0.03500000014901161,-0.017099998891353607,-0.003599999938160181
1702338693125036800,19.141036865234376,-0.03500000014901161,-0.0071000000461936,-0.003499999875202775
1702338693224300800,19.24030078125,-0.03500000014901161,-0.006899999920278788,-0.00279999990016222
1702338693323563500,19.3395634765625,-0.03500000014901161,0.00279999990016222,-0.00279999990016222
1702338693422827500,19.43882763671875,-0.03500000014901161,-0.0064999996684491634,-0.0030999998562037945
1702338693522090000,19.538090087890627,-0.025200000032782555,-0.0066999997943639755,-0.0026000000070780516
1702338693621354000,19.63735400390625,-0.03500000014901161,-0.007699999958276749,0.0072999997064471245
1702338693720615000,19.736614990234376,-0.03500000014901161,-0.008200000040233135,-0.010799999348819256
1702338693819879200,19.835879150390625,-0.04479999840259552,-0.00839999970048666,-0.0010999999940395355
1702338693919143200,19.93514306640625,-0.04479999840259552,0.0017999999690800905,-0.0015999999595806003
1702338694018405600,20.034405517578126,-0.03500000014901161,0.0011999999405816197,0.00839999970048666
1702338694117669600,20.133669677734375,-0.04479999840259552,0.0007999999797903001,-0.010999999940395355
1702338694216932000,20.23293212890625,-0.025100000202655792,-0.009200000204145908,-0.0015999999595806003
1702338694316194600,20.332194580078124,-0.0348999984562397,-0.008899999782443047,-0.00139999995008111
1702338694415458800,20.431458740234376,-0.04479999840259552,0.0011999999405816197,0.017899999395012856
1702338694514721300,20.53072119140625,-0.025200000032782555,-0.006599999964237213,-0.002300000051036477
1702338694613985300,20.6299853515625,-0.04479999840259552,0.011599999852478504,-0.00139999995008111
1702338694713247700,20.729247802734374,-0.03500000014901161,-0.007799999788403511,-0.0016999999061226845
1702338694812511700,20.82851171875,-0.015399999916553497,0.0016999999061226845,0.007599999662488699
1702338694911774500,20.9277744140625,-0.03500000014901161,0.0015999999595806003,-0.002199999988079071
1702338695011037000,21.027036865234376,-0.0348999984562397,-0.008599999360740185,-0.002300000051036477
1702338695110301000,21.126301025390624,-0.04479999840259552,-0.008100000210106373,0.007899999618530273
1702338695209563400,21.2255634765625,-0.04479999840259552,0.0016999999061226845,0.008299999870359898
1702338695308827400,21.324827392578126,-0.04479999840259552,-0.007999999448657036,-0.0017999999690800905
1702338695408089900,21.42408984375,-0.03500000014901161,0.0018999999156221747,-0.0013000000035390258
1702338695507354000,21.52335400390625,-0.03500000014901161,0.0017999999690800905,-0.0011999999405816197
1702338695606616600,21.622616455078123,-0.03500000014901161,0.001999999862164259,-0.0015999999595806003
1702338695705880600,21.721880615234376,-0.03500000014901161,-0.007499999832361937,-0.0024999999441206455
1702338695805143000,21.82114306640625,-0.03500000014901161,0.001999999862164259,0.007799999788403511
1702338695904407000,21.920406982421873,-0.025100000202655792,-0.008200000040233135,0.02669999934732914
1702338696003669800,22.019669677734374,-0.03500000014901161,-0.007599999662488699,-0.0018999999156221747
1702338696102932200,22.11893212890625,-0.025200000032782555,0.002199999988079071,-0.002300000051036477
1702338696202196200,22.2181962890625,-0.025200000032782555,-0.007499999832361937,0.016699999570846558
1702338696301460200,22.317460205078124,-0.03500000014901161,0.0015999999595806003,-0.012899999506771564
1702338696400722700,22.41672265625,-0.01529999915510416,-0.007499999832361937,0.0058999997563660145
1702338696499985400,22.5159853515625,-0.03500000014901161,0.0018999999156221747,-0.012899999506771564
1702338696599249400,22.61524951171875,-0.03500000014901161,0.0016999999061226845,-0.0031999999191612005
1702338696698512000,22.714511962890626,-0.31929999589920044,0.03269999846816063,-0.05900000035762787
1702338696797776000,22.81377587890625,-0.08410000056028366,-0.012399999424815178,0.142099991440773
1702338696897038300,22.913038330078123,0.0429999977350235,-0.05949999764561653,-0.014599999412894249
1702338696996302600,23.012302490234376,0.023899998515844345,-0.04230000078678131,0.07289999723434448
1702338697095565000,23.11156494140625,2.494999885559082,0.36309999227523804,0.9413999915122986
1702338697194829000,23.2108291015625,0.8659999966621399,-0.03179999813437462,0.15079998970031738
1702338697294091500,23.310091552734374,-0.07539999485015869,0.0689999982714653,0.02929999865591526
1702338697393354000,23.40935400390625,-0.016599999740719795,0.029500000178813934,0.030799999833106995
1702338697492619800,23.508619873046875,-0.026399999856948853,0.019899999722838402,0.05049999803304672
1702338697591880700,23.607880615234375,-0.03619999811053276,0.03949999809265137,0.07000000029802322
1702338697691144700,23.707144775390624,-0.03619999811053276,0.019999999552965164,0.060099996626377106
1702338697790407200,23.8064072265625,-0.04600000008940697,0.029999999329447746,0.030899999663233757
1702338697889671200,23.905671142578125,-0.026399999856948853,0.03959999978542328,0.05049999803304672
1702338697988933600,24.00493359375,-0.03619999811053276,0.04879999905824661,0.06059999763965607
1702338698088198000,24.104197998046875,-0.03619999811053276,0.02889999933540821,0.05079999938607216
1702338698187460400,24.20346044921875,-0.02630000002682209,0.007799999788403511,0.048899997025728226
1702338698286724400,24.302724365234376,-0.035999998450279236,0.023799998685717583,0.033900000154972076
1702338698385986800,24.40198681640625,-0.03590000048279762,0.010699999518692493,0.029899999499320984
1702338698485250800,24.501250732421877,-0.03579999879002571,-0.00139999995008111,0.0348999984562397
1702338698584513500,24.600513427734374,-0.045499999076128006,-0.003000000026077032,0.0210999995470047
1702338698683776000,24.69977587890625,-0.0357000008225441,0.024299999698996544,0.019199999049305916
1702338698783040000,24.7990400390625,-0.035599999129772186,0.02159999869763851,0.016599999740719795
1702338698882302500,24.898302490234375,-0.025699999183416367,0.010400000028312206,0.02369999885559082
1702338698981566500,24.99756640625,-0.035499997437000275,0.009999999776482582,0.012299999594688416
1702338699080829000,25.096828857421876,-0.025699999183416367,0.009800000116229057,0.029600000008940697
1702338699180093200,25.19609326171875,-0.025599999353289604,0.01860000006854534,0.009099999442696571
1702338699279355600,25.295355712890625,-0.006000000052154064,0.008100000210106373,-0.0010999999940395355
1702338699378619600,25.39461962890625,-0.025599999353289604,0.007199999876320362,0.027400000020861626
1702338699477882000,25.493882080078127,-0.025599999353289604,0.0066999997943639755,0.016899999231100082
1702338699577146000,25.59314599609375,-0.025499999523162842,0.006000000052154064,0.006799999624490738
1702338699676408800,25.692408935546876,-0.03529999777674675,0.01529999915510416,0.006199999712407589
1702338699775672800,25.7916728515625,-0.03529999777674675,0.02419999986886978,0.016200000420212746
1702338699874935300,25.890935302734373,-0.045099999755620956,0.013599999248981476,0.025999998673796654
1702338699974197800,25.99019775390625,-0.025499999523162842,0.0032999999821186066,0.015699999406933784
1702338700073461800,26.089461669921874,-0.03519999980926514,0.002699999837204814,0.004900000058114529
1702338700172724500,26.188724365234375,-0.02539999969303608,0.002099999925121665,0.014299999922513962
1702338700271988500,26.287988525390624,-0.03519999980926514,0.001999999862164259,-0.005399999674409628
1702338700371251000,26.3872509765625,-0.044999998062849045,0.011399999260902405,0.013899999670684338
1702338700470515000,26.486514892578125,-0.015599999576807022,0.0016999999061226845,0.012600000016391277
1702338700569777400,26.58577734375,-0.03519999980926514,0.011399999260902405,0.012199999764561653
1702338700669041700,26.685041748046874,-0.02539999969303608,-0.008100000210106373,0.0018999999156221747
1702338700768304000,26.78430419921875,-0.025299999862909317,0.0011999999405816197,0.010900000110268593
1702338700867568000,26.883568115234375,-0.02539999969303608,-0.008100000210106373,0.010199999436736107
1702338700966830600,26.98283056640625,-0.035099998116493225,0.0007999999797903001,0.019899999722838402
1702338701066094600,27.082094482421876,-0.025299999862909317,0.020399998873472214,0.010300000198185444
1702338701165357000,27.181357177734377,-0.025299999862909317,0.01979999989271164,-0.009499999694526196
1702338701264621300,27.280621337890626,-0.025299999862909317,-0.009399999864399433,-0.00009999999747378752
1702338701363882200,27.37988232421875,-0.035099998116493225,0.00009999999747378752,0.008700000122189522
1702338701463146200,27.479146240234375,-0.01549999974668026,-0.00029999998514540493,0.007999999448657036
1702338701562410200,27.57841015625,-0.04490000009536743,0.009200000204145908,0.008499999530613422
1702338701661674200,27.67767431640625,-0.025299999862909317,-0.010999999940395355,0.008299999870359898
1702338701760937000,27.77693701171875,-0.03500000014901161,-0.011299999430775642,-0.0017999999690800905
1702338701860199400,27.876199462890625,-0.03500000014901161,-0.011500000022351742,-0.011799999512732029
1702338701959462000,27.9754619140625,-0.015399999916553497,0.007899999618530273,-0.002199999988079071
1702338702058726000,28.074725830078126,-0.025200000032782555,-0.0015999999595806003,0.007499999832361937
1702338702157990000,28.173989990234375,-0.025200000032782555,0.007999999448657036,-0.0023999998811632395
1702338702257252400,28.27325244140625,-0.03500000014901161,0.007599999662488699,0.007199999876320362
1702338702356516600,28.3725166015625,-0.025200000032782555,-0.00139999995008111,-0.0017999999690800905
1702338702455779000,28.471779052734377,-0.025299999862909317,-0.0008999999845400453,0.008100000210106373
1702338702555041500,28.57104150390625,-0.035099998116493225,-0.00039999998989515007,0.007599999662488699
1702338702654304000,28.670303955078126,-0.04490000009536743,0.008700000122189522,-0.0016999999061226845
1702338702753568000,28.769568115234375,-0.04490000009536743,-0.0013000000035390258,0.008299999870359898
1702338702852830700,28.868830810546875,-0.025299999862909317,-0.0010999999940395355,-0.001500000013038516
1702338702952094700,28.9680947265625,-0.025200000032782555,-0.0018999999156221747,-0.0018999999156221747
1702338703051357200,29.067357177734376,-0.03500000014901161,0.007799999788403511,-0.0017999999690800905
1702338703150621200,29.16662109375,-0.025200000032782555,-0.002099999925121665,0.007799999788403511
1702338703249885200,29.26588525390625,-0.025200000032782555,0.00699999975040555,-0.0024999999441206455
1702338703349148000,29.36514794921875,-0.025200000032782555,-0.002099999925121665,-0.002199999988079071
1702338703448410400,29.464410400390626,-0.05460000038146973,-0.0023999998811632395,0.008200000040233135
1702338703547674400,29.56367431640625,-0.04479999840259552,-0.0018999999156221747,-0.0016999999061226845
1702338703646938400,29.6629384765625,-0.03500000014901161,-0.002199999988079071,0.007999999448657036
1702338703746200800,29.762200927734376,-0.025200000032782555,0.007499999832361937,0.01759999990463257
1702338703845463300,29.86146337890625,-0.025200000032782555,-0.0015999999595806003,-0.002199999988079071
1702338703944726000,29.96072607421875,-0.03500000014901161,-0.00139999995008111,0.016899999231100082
1702338704043990000,30.059989990234374,-0.03500000014901161,-0.001500000013038516,0.00699999975040555
1702338704143252500,30.15925244140625,-0.03500000014901161,-0.0018999999156221747,-0.0026000000070780516
1702338704242516500,30.2585166015625,-0.03500000014901161,0.00699999975040555,0.007400000002235174
1702338704341779000,30.357779052734376,-0.025200000032782555,-0.022499999031424522,-0.002300000051036477
1702338704441043200,30.457043212890625,-0.025200000032782555,-0.0030999998562037945,-0.001500000013038516
1702338704540305700,30.5563056640625,-0.03500000014901161,0.0066999997943639755,0.008299999870359898
1702338704639569700,30.655569580078126,-0.025200000032782555,-0.012999999336898327,0.008299999870359898
1702338704738832100,30.75483203125,-0.04479999840259552,-0.002300000051036477,0.027300000190734863
1702338704838096100,30.85409619140625,-0.04479999840259552,-0.0023999998811632395,0.0072999997064471245
1702338704937358800,30.95335888671875,-0.03500000014901161,0.01679999940097332,-0.0024999999441206455
1702338705036622800,31.052622802734376,-0.03500000014901161,-0.012399999424815178,0.007999999448657036
1702338705135885300,31.15188525390625,-0.03500000014901161,-0.01209999993443489,0.00839999970048666
1702338705235147800,31.251147705078125,-0.015399999916553497,0.007199999876320362,0.008700000122189522
1702338705334411800,31.350411865234374,-0.04479999840259552,-0.0024999999441206455,0
1702338705433674200,31.44967431640625,-0.015399999916553497,-0.002099999925121665,0.010199999436736107
1702338705532938500,31.5489384765625,-0.025200000032782555,-0.012199999764561653,0.010199999436736107
1702338705632201000,31.648200927734376,-0.025200000032782555,0.00699999975040555,0.00039999998989515007
1702338705731465000,31.74746484375,-0.025200000032782555,-0.0024999999441206455,0.009999999776482582
1702338705830727400,31.8467275390625,-0.035099998116493225,-0.002199999988079071,0.009999999776482582
1702338705929991400,31.945991455078126,-0.015399999916553497,0.007499999832361937,0.010300000198185444
1702338706029254100,32.045254150390626,-0.025299999862909317,-0.0016999999061226845,0.010199999436736107
1702338706128518100,32.14451806640625,-0.025299999862909317,0.008499999530613422,-0.009099999442696571
1702338706227780600,32.243780517578124,-0.025299999862909317,-0.00139999995008111,0.010400000028312206
1702338706327044600,32.343044677734376,-0.025299999862909317,-0.0013000000035390258,0.00989999994635582
1702338706426307000,32.44230712890625,-0.035099998116493225,-0.010900000110268593,0.010300000198185444
1702338706525569800,32.54156982421875,-0.025299999862909317,-0.010900000110268593,0.0004999999655410647
1702338706624833800,32.64083374023438,-0.025299999862909317,-0.0007999999797903001,0.000699999975040555
1702338706724096300,32.74009619140625,-0.025299999862909317,-0.0015999999595806003,0.00989999994635582
1702338706823360300,32.8393603515625,-0.035099998116493225,-0.010999999940395355,0.019899999722838402
1702338706922622700,32.93862280273437,-0.025299999862909317,-0.010900000110268593,-0.00009999999747378752
1702338707021887000,33.037886962890624,-0.04490000009536743,-0.011699999682605267,-0.00039999998989515007
1702338707121149400,33.1371494140625,-0.025200000032782555,0.007400000002235174,0.009800000116229057
1702338707220413400,33.23641333007812,-0.025200000032782555,-0.0023999998811632395,-0.00989999994635582
1702338707319676000,33.335676025390626,-0.03500000014901161,-0.012199999764561653,0.00989999994635582
1702338707418940000,33.43493994140625,-0.04479999840259552,-0.00279999990016222,-0.00029999998514540493
1702338707518202400,33.53420239257812,-0.025200000032782555,-0.00279999990016222,0.018299998715519905
1702338707617466600,33.633466552734376,-0.03500000014901161,-0.01269999984651804,0.00839999970048666
1702338707716729000,33.73272900390625,-0.025200000032782555,-0.0030999998562037945,-0.0011999999405816197
1702338707815991600,33.831991455078125,-0.025200000032782555,0.006300000008195639,-0.0013000000035390258
1702338707915255600,33.93125561523438,-0.025200000032782555,-0.003599999938160181,0.017999999225139618
1702338708014518000,34.03051806640625,-0.04479999840259552,-0.003399999812245369,-0.011099999770522118
1702338708113782300,34.1297822265625,-0.03500000014901161,-0.003599999938160181,-0.01119999960064888
1702338708213044700,34.22904467773437,-0.025200000032782555,0.0064999996684491634,-0.010799999348819256
1702338708312308700,34.328308837890624,-0.03500000014901161,-0.002899999963119626,0.008999999612569809
1702338708411571200,34.4275712890625,-0.025200000032782555,-0.0026000000070780516,-0.0013000000035390258
1702338708510835200,34.52683520507812,-0.03500000014901161,0.007499999832361937,0.01769999973475933
1702338708610097700,34.62609765625,-0.03500000014901161,0.007400000002235174,0.007699999958276749
1702338708709362000,34.72536181640625,-0.03500000014901161,-0.0016999999061226845,-0.002199999988079071
1702338708808624400,34.82462426757812,-0.03500000014901161,-0.00139999995008111,-0.003000000026077032
1702338708907886800,34.92388696289063,-0.025200000032782555,-0.0010999999940395355,0.0058999997563660145
1702338709007149300,35.0231494140625,-0.03500000014901161,-0.0017999999690800905,-0.0032999999821186066
1702338709106413300,35.122413330078125,-0.03500000014901161,-0.0016999999061226845,0.006399999838322401
1702338709205677600,35.22167749023438,-0.03500000014901161,-0.0013000000035390258,0.006599999964237213
1702338709304941600,35.32094165039062,-0.03500000014901161,0.017899999395012856,-0.0031999999191612005
1702338709404204000,35.4202041015625,-0.025200000032782555,-0.0011999999405816197,-0.012899999506771564
1702338709503466500,35.51946655273437,-0.025200000032782555,-0.00139999995008111,-0.003599999938160181
1702338709602730500,35.61873046875,-0.025200000032782555,0.007599999662488699,-0.003700000001117587
1702338709701993200,35.7179931640625,-0.025200000032782555,-0.002199999988079071,0.005799999926239252
1702338709801257200,35.81725732421875,-0.025200000032782555,0.0071000000461936,-0.013199999928474426
1702338709900519700,35.916519775390626,-0.025200000032782555,-0.012299999594688416,0.006099999882280827
1702338709999783700,36.01578369140625,-0.025200000032782555,-0.011899999342858791,0.015099999494850636
1702338710099046100,36.11504614257812,-0.015399999916553497,-0.001999999862164259,0.005399999674409628
1702338710198308600,36.21430859375,-0.04479999840259552,0.007799999788403511,-0.004399999976158142
1702338710297572900,36.31357275390625,-0.03500000014901161,0.007799999788403511,-0.004100000020116568
1702338710396835300,36.41283544921875,-0.03500000014901161,-0.0023999998811632395,0.00559999980032444
1702338710496097800,36.51209790039063,-0.015399999916553497,-0.002199999988079071,0.004999999888241291
1702338710595361800,36.61136181640625,-0.015399999916553497,-0.0017999999690800905,0.0052999998442828655
1702338710694624300,36.710624267578126,-0.015399999916553497,-0.002699999837204814,0.0044999998062849045
1702338710793888500,36.80988842773438,-0.03500000014901161,0.0064999996684491634,0.004600000102072954
1702338710893151000,36.90915087890625,-0.04479999840259552,-0.00279999990016222,-0.02459999918937683
1702338710992415000,37.0084150390625,-0.025200000032782555,0.006199999712407589,-0.004600000102072954
1702338711091677400,37.10767749023437,-0.025200000032782555,0.006099999882280827,0.005499999970197678
1702338711190941400,37.20694140625,-0.03500000014901161,-0.003399999812245369,-0.00419999985024333
1702338711290205700,37.30620581054688,-0.00559999980032444,-0.012299999594688416,-0.003499999875202775
1702338711389466600,37.405466552734374,-0.03500000014901161,0.00699999975040555,0.01589999906718731
1702338711488730600,37.50473071289063,-0.03500000014901161,-0.0024999999441206455,-0.0037999998312443495
1702338711587994600,37.60399462890625,-0.03500000014901161,0.00699999975040555,-0.012600000016391277
1702338711687257000,37.703257080078124,-0.015399999916553497,-0.0031999999191612005,-0.012600000016391277
1702338711786519600,37.80251953125,-0.04479999840259552,0.01640000008046627,-0.0023999998811632395
1702338711885783800,37.90178369140625,-0.025200000032782555,0.006000000052154064,0.007499999832361937
1702338711985046300,38.00104638671875,-0.03500000014901161,-0.003599999938160181,-0.0026000000070780516
1702338712084310300,38.10031030273438,-0.025200000032782555,-0.0030999998562037945,-0.002899999963119626
1702338712183572700,38.19957275390625,-0.025200000032782555,-0.013199999928474426,0.0072999997064471245
1702338712282836700,38.298836669921876,-0.04479999840259552,-0.0032999999821186066,-0.012000000104308128
1702338712382099500,38.39809936523437,-0.025200000032782555,-0.002899999963119626,0.007699999958276749
1702338712481363500,38.497363525390625,-0.025200000032782555,-0.0024999999441206455,0.007599999662488699
1702338712580626000,38.5966259765625,-0.03500000014901161,0.0072999997064471245,-0.002099999925121665
1702338712679890000,38.69588989257812,-0.03500000014901161,-0.011399999260902405,0.0072999997064471245
1702338712779152400,38.79515234375,-0.025200000032782555,-0.011099999770522118,-0.002699999837204814
1702338712878415000,38.8944150390625,-0.04490000009536743,0.008299999870359898,0.0071000000461936
1702338712977679000,38.99367919921875,-0.03500000014901161,0.008100000210106373,0.016899999231100082
1702338713076941600,39.09294165039063,-0.025200000032782555,0.007799999788403511,0.00699999975040555
1702338713176205600,39.19220556640625,-0.025200000032782555,-0.020399998873472214,0.01640000008046627
1702338713275468000,39.291468017578126,-0.03500000014901161,-0.0011999999405816197,0.006199999712407589
1702338713374732300,39.39073217773438,-0.03500000014901161,0.008100000210106373,-0.003599999938160181
1702338713473994800,39.489994873046875,-0.025200000032782555,-0.0016999999061226845,-0.003000000026077032
1702338713573258800,39.5892587890625,-0.025200000032782555,-0.0011999999405816197,0.006599999964237213
1702338713672521200,39.68852124023437,-0.025200000032782555,0.008499999530613422,-0.0024999999441206455
1702338713771785200,39.78778515625,-0.04479999840259552,0.007799999788403511,0.007999999448657036
1702338713871047700,39.88704760742188,-0.015399999916553497,-0.011399999260902405,0.0072999997064471245
1702338713970312000,39.98631201171875,-0.025200000032782555,0.01730000041425228,-0.00279999990016222
1702338714069574400,40.08557446289063,-0.03500000014901161,-0.011699999682605267,-0.0026000000070780516
1702338714168836900,40.1848369140625,-0.04479999840259552,-0.002300000051036477,0.016899999231100082
1702338714268100900,40.284100830078124,-0.025200000032782555,0.007199999876320362,-0.011799999512732029
1702338714367363300,40.38336328125,-0.04479999840259552,0.006599999964237213,-0.011699999682605267
1702338714466627600,40.48262768554687,-0.03500000014901161,0.00699999975040555,-0.002199999988079071
1702338714565890000,40.58189013671875,-0.03500000014901161,0.0071000000461936,-0.002300000051036477
1702338714665154000,40.68115405273438,-0.03500000014901161,-0.012799999676644802,-0.001500000013038516
1702338714764416500,40.78041650390625,-0.03500000014901161,0.006899999920278788,-0.001500000013038516
1702338714863680500,40.879680419921876,-0.03500000014901161,0.0072999997064471245,-0.0017999999690800905
1702338714962943000,40.97894287109375,-0.03500000014901161,-0.0018999999156221747,0.007400000002235174
1702338715062207200,41.078207275390625,-0.03500000014901161,-0.0023999998811632395,0.006599999964237213
1702338715161469700,41.1774697265625,-0.03500000014901161,0.0072999997064471245,0.006300000008195639
1702338715260732200,41.276732177734374,-0.03500000014901161,0.016899999231100082,-0.012899999506771564
1702338715359996200,41.37599609375,-0.03500000014901161,-0.002699999837204814,0.006799999624490738
1702338715459260400,41.47526049804687,-0.025200000032782555,-0.003000000026077032,0.0066999997943639755
1702338715558523000,41.57452294921875,-0.03500000014901161,-0.012600000016391277,-0.00279999990016222
1702338715657785300,41.67378540039063,-0.025200000032782555,-0.0030999998562037945,0.006899999920278788
1702338715757049300,41.77304931640625,-0.025200000032782555,0.006399999838322401,0.006300000008195639
1702338715856311800,41.872311767578125,-0.03500000014901161,-0.0031999999191612005,0.0058999997563660145
1702338715955575800,41.97157592773438,-0.03500000014901161,0.0066999997943639755,0.0050999997183680534
1702338716054838500,42.070838623046875,-0.05460000038146973,0.006799999624490738,-0.0037999998312443495
1702338716154102500,42.1701025390625,-0.015399999916553497,0.0064999996684491634,-0.0032999999821186066
1702338716253365000,42.26936499023437,-0.03500000014901161,0.006300000008195639,0.0066999997943639755
1702338716352629000,42.36862890625,-0.03500000014901161,-0.003499999875202775,-0.012299999594688416
1702338716451891500,42.46789135742188,-0.04479999840259552,-0.003599999938160181,0.008200000040233135
1702338716551154000,42.56715380859375,-0.03500000014901161,-0.0032999999821186066,0.007400000002235174
1702338716650416600,42.66641674804688,-0.03500000014901161,-0.002899999963119626,-0.002099999925121665
1702338716749680600,42.7656806640625,-0.025200000032782555,-0.002899999963119626,0.01730000041425228
1702338716848944600,42.864944580078124,-0.04479999840259552,0.0058999997563660145,0.007799999788403511
1702338716948207000,42.96420703125,-0.015399999916553497,0.0058999997563660145,-0.0016999999061226845
1702338717047471000,43.06347119140625,-0.025200000032782555,-0.004399999976158142,-0.00139999995008111
1702338717146733800,43.16273388671875,-0.03500000014901161,-0.014599999412894249,0.007999999448657036
1702338717245996300,43.26199633789062,-0.03500000014901161,-0.004699999932199717,-0.00139999995008111
1702338717345260300,43.36126025390625,-0.025200000032782555,0.004699999932199717,-0.00139999995008111
1702338717444524300,43.460524169921875,-0.025200000032782555,0.0050999997183680534,-0.012000000104308128
1702338717543786800,43.55978686523437,-0.00559999980032444,-0.013399999588727951,-0.0016999999061226845
1702338717643049500,43.659049560546876,-0.03500000014901161,-0.003499999875202775,-0.0015999999595806003
1702338717742313500,43.7583134765625,-0.015399999916553497,0.006099999882280827,0.01679999940097332
1702338717841576000,43.85757592773437,-0.03500000014901161,-0.0038999998942017555,-0.00279999990016222
1702338717940840000,43.95683984375,-0.015399999916553497,-0.003599999938160181,0.0058999997563660145
1702338718040102400,44.05610229492188,-0.025200000032782555,-0.003999999724328518,-0.013499999418854713
1702338718139364900,44.15536474609375,-0.025200000032782555,-0.003999999724328518,-0.013700000010430813
1702338718238629000,44.25462915039063,-0.03500000014901161,-0.003399999812245369,-0.003999999724328518
1702338718337891600,44.3538916015625,-0.04479999840259552,-0.013700000010430813,-0.013700000010430813
1702338718437155600,44.453155517578125,-0.03500000014901161,-0.0038999998942017555,-0.013299999758601189
1702338718536419600,44.55241967773438,-0.03500000014901161,-0.003499999875202775,-0.002899999963119626
1702338718635682000,44.65168212890625,-0.03500000014901161,0.006599999964237213,-0.012999999336898327
1702338718734944800,44.75094482421875,-0.025200000032782555,-0.0032999999821186066,-0.0024999999441206455
1702338718834208800,44.85020874023437,-0.03500000014901161,0.0064999996684491634,-0.012000000104308128
1702338718933471200,44.94947119140625,-0.03500000014901161,-0.003700000001117587,0.007999999448657036
1702338719032735200,45.0487353515625,-0.025200000032782555,-0.004100000020116568,0.007899999618530273
1702338719131997700,45.14799780273437,-0.03500000014901161,0.005200000014156103,-0.0018999999156221747
1702338719231260400,45.24726049804688,-0.025100000202655792,0.004699999932199717,-0.002199999988079071
1702338719330524400,45.3465244140625,-0.0348999984562397,-0.005200000014156103,-0.0024999999441206455
1702338719429787000,45.445786865234375,-0.0348999984562397,-0.004900000058114529,0.007199999876320362
1702338719529051000,45.54505078125,-0.03500000014901161,-0.0044999998062849045,0.007199999876320362
1702338719628313300,45.64431323242187,-0.04479999840259552,-0.004600000102072954,0.007699999958276749
1702338719727577600,45.74357763671875,-0.04479999840259552,-0.0050999997183680534,-0.0024999999441206455
1702338719826840000,45.84284008789062,-0.0348999984562397,-0.004799999762326479,0.02630000002682209
1702338719926104000,45.94210400390625,-0.025200000032782555,-0.004399999976158142,-0.012399999424815178
1702338720025366500,46.041366455078126,-0.025200000032782555,0.005499999970197678,-0.002300000051036477
1702338720124630500,46.14063061523437,-0.04479999840259552,-0.013100000098347664,0.007199999876320362
1702338720223893000,46.23989306640625,-0.04479999840259552,-0.0038999998942017555,-0.002300000051036477
1702338720323157200,46.3391572265625,-0.025200000032782555,-0.003700000001117587,-0.012600000016391277
1702338720422419700,46.43841967773437,-0.03500000014901161,-0.004100000020116568,-0.00279999990016222
1702338720521683700,46.53768359375,-0.03500000014901161,-0.004100000020116568,0.0071000000461936
1702338720620946200,46.6369462890625,-0.03500000014901161,-0.003999999724328518,-0.0026000000070780516
1702338720720210200,46.73621020507812,-0.025200000032782555,0.0058999997563660145,-0.002099999925121665
1702338720819473000,46.83547290039063,-0.03500000014901161,0.015699999406933784,-0.002300000051036477
1702338720918735400,46.9347353515625,-0.015399999916553497,-0.004100000020116568,-0.0018999999156221747
1702338721017999400,47.033999267578125,-0.04479999840259552,0.01549999974668026,-0.002099999925121665
1702338721117261800,47.13326171875,-0.03500000014901161,-0.013599999248981476,-0.01119999960064888
1702338721216525800,47.23252587890625,-0.03500000014901161,-0.004399999976158142,0.008200000040233135
1702338721315788500,47.33178857421875,-0.03500000014901161,-0.00419999985024333,-0.0011999999405816197
1702338721415052500,47.43105249023437,-0.03500000014901161,0.006000000052154064,0.007999999448657036
1702338721514315000,47.53031494140625,-0.025200000032782555,0.015099999494850636,0.0072999997064471245
1702338721613579000,47.6295791015625,-0.03500000014901161,-0.003599999938160181,0.006799999624490738
1702338721712841500,47.72884155273437,-0.025200000032782555,-0.0038999998942017555,-0.0023999998811632395
1702338721812105700,47.828105712890626,-0.025200000032782555,-0.012899999506771564,0.007499999832361937
1702338721911368200,47.9273681640625,-0.03500000014901161,-0.003599999938160181,-0.00279999990016222
1702338722010630700,48.026630615234374,-0.03500000014901161,-0.003999999724328518,-0.0023999998811632395
1702338722109894700,48.12589477539063,-0.03500000014901161,-0.013499999418854713,-0.002199999988079071
1702338722209157000,48.2251572265625,-0.025200000032782555,-0.0032999999821186066,0.007499999832361937
1702338722308421000,48.324421142578124,-0.025200000032782555,-0.012999999336898327,0.0071000000461936
1702338722407683800,48.42368383789063,-0.025200000032782555,0.006599999964237213,0.007599999662488699
1702338722506947800,48.52294775390625,-0.04479999840259552,-0.003499999875202775,0.008100000210106373
1702338722606210300,48.622210205078126,-0.025200000032782555,-0.003499999875202775,-0.0017999999690800905
1702338722705474300,48.72147436523438,-0.025200000032782555,-0.0032999999821186066,-0.002300000051036477
1702338722804736800,48.82073681640625,-0.04479999840259552,-0.0023999998811632395,0.007899999618530273
1702338722904001000,48.9200009765625,-0.025200000032782555,-0.002099999925121665,-0.001999999862164259
1702338723003263500,49.01926342773437,-0.025200000032782555,-0.020800000056624413,-0.012000000104308128
1702338723102526000,49.11852587890625,-0.01549999974668026,-0.0008999999845400453,0.007499999832361937
1702338723201790000,49.2177900390625,-0.01549999974668026,0.00930000003427267,-0.002099999925121665
1702338723301052400,49.317052490234374,-0.04490000009536743,-0.0011999999405816197,0.007400000002235174
1702338723400316400,49.41631640625,-0.00559999980032444,-0.0009999999310821295,-0.0016999999061226845
1702338723499579100,49.5155791015625,-0.025299999862909317,-0.0010999999940395355,0.007799999788403511
1702338723598843100,49.614843017578124,-0.04479999840259552,-0.0015999999595806003,-0.002300000051036477
1702338723698105600,49.71410571289063,-0.025200000032782555,0.007799999788403511,0.008100000210106373
1702338723797369600,49.81336962890625,-0.025200000032782555,-0.002199999988079071,-0.010499999858438969
1702338723896632000,49.912632080078126,-0.025200000032782555,0.007499999832361937,0.009099999442696571
1702338723995896300,50.01189624023438,-0.025200000032782555,-0.002699999837204814,-0.0005999999702908099
1702338724095158800,50.11115869140625,-0.04479999840259552,0.007199999876320362,-0.0005999999702908099
1702338724194422800,50.2104228515625,-0.03500000014901161,0.007599999662488699,-0.00039999998989515007
1702338724293685200,50.30968530273437,-0.025200000032782555,0.007599999662488699,0.01860000006854534
1702338724392947700,50.40894775390625,-0.04479999840259552,-0.012799999676644802,0.008299999870359898
1702338724492212000,50.5082119140625,-0.04479999840259552,-0.012899999506771564,-0.0011999999405816197
1702338724591474400,50.607474365234374,-0.03500000014901161,-0.002899999963119626,-0.0005999999702908099
1702338724690738400,50.70673852539063,-0.025200000032782555,-0.003000000026077032,-0.0008999999845400453
1702338724790001000,50.8060009765625,-0.025200000032782555,-0.0030999998562037945,0.009099999442696571
1702338724889265000,50.905264892578124,-0.03500000014901161,-0.003399999812245369,0.00839999970048666
1702338724988527400,51.00452734375,-0.03500000014901161,-0.003599999938160181,0.00839999970048666
1702338725087791600,51.10379150390625,-0.025200000032782555,-0.01269999984651804,0.007699999958276749
1702338725187054000,51.20305419921875,-0.03500000014901161,0.006199999712407589,-0.0017999999690800905
1702338725286318000,51.30231811523438,-0.03500000014901161,-0.0139999995008111,-0.001500000013038516
1702338725385580500,51.40158056640625,-0.025200000032782555,0.005699999630451202,-0.011599999852478504
1702338725484843000,51.50084301757813,-0.01529999915510416,0.0050999997183680534,0.007199999876320362
1702338725584107300,51.60010717773437,-0.03500000014901161,-0.004399999976158142,0.006899999920278788
1702338725683369700,51.69936962890625,-0.025200000032782555,-0.003999999724328518,-0.002899999963119626
1702338725782633700,51.7986337890625,-0.04479999840259552,-0.0038999998942017555,-0.002899999963119626
1702338725881896200,51.897896240234374,-0.00559999980032444,-0.003700000001117587,0.016300000250339508
1702338725981158700,51.99715869140625,-0.025200000032782555,0.005799999926239252,-0.012999999336898327
1702338726080423000,52.0964228515625,-0.03500000014901161,-0.003700000001117587,0.006199999712407589
1702338726179687000,52.19568701171875,-0.03500000014901161,-0.0037999998312443495,0.016300000250339508
1702338726278949400,52.29494946289063,-0.03500000014901161,0.005799999926239252,-0.003399999812245369
1702338726378211800,52.3942119140625,-0.025200000032782555,-0.003399999812245369,-0.013399999588727951
1702338726477475800,52.493475830078125,-0.03500000014901161,-0.0032999999821186066,-0.003700000001117587
1702338726576740000,52.59273999023438,-0.025200000032782555,-0.0031999999191612005,-0.0031999999191612005
1702338726676002600,52.69200244140625,-0.025200000032782555,0.006899999920278788,-0.012299999594688416
1702338726775265000,52.79126513671875,-0.025200000032782555,0.006399999838322401,-0.00139999995008111
1702338726874529000,52.89052905273437,-0.03500000014901161,-0.013100000098347664,-0.0011999999405816197
1702338726973791500,52.98979150390625,-0.04479999840259552,0.006199999712407589,0.007899999618530273
1702338727073054000,53.08905395507813,-0.025200000032782555,-0.003000000026077032,-0.002199999988079071
1702338727172318200,53.188318115234374,-0.025200000032782555,-0.013199999928474426,0.01730000041425228
1702338727271580700,53.28758056640625,-0.03500000014901161,-0.0031999999191612005,0.0071000000461936
1702338727370844700,53.3868447265625,-0.025200000032782555,-0.0037999998312443495,-0.002699999837204814
1702338727470107100,53.486107177734375,-0.015399999916553497,-0.003399999812245369,-0.011799999512732029
1702338727569371100,53.58537109375,-0.015399999916553497,-0.00279999990016222,-0.0018999999156221747
1702338727668633900,53.6846337890625,-0.025200000032782555,0.007199999876320362,0.007599999662488699
1702338727767897900,53.78389794921875,-0.03500000014901161,-0.011699999682605267,0.007400000002235174
1702338727867160300,53.88316040039062,-0.015399999916553497,-0.0018999999156221747,-0.002199999988079071
1702338727966424300,53.98242431640625,-0.025200000032782555,-0.020800000056624413,-0.002199999988079071
1702338728065686800,54.08168676757813,-0.025299999862909317,-0.000699999975040555,0.0072999997064471245
1702338728164951000,54.18095092773437,-0.025200000032782555,-0.0013000000035390258,0.0066999997943639755
1702338728264213500,54.280213623046876,-0.03500000014901161,0.008200000040233135,0.0071000000461936
1702338728363477500,54.3794775390625,-0.03500000014901161,0.008499999530613422,0.006799999624490738
1702338728462740000,54.478739990234374,-0.015399999916553497,-0.010699999518692493,0.0071000000461936
1702338728562002400,54.57800244140625,-0.035099998116493225,-0.0010999999940395355,0.007400000002235174
1702338728661266400,54.67726635742188,-0.03500000014901161,-0.011399999260902405,-0.002199999988079071
1702338728760529200,54.776529052734375,-0.015399999916553497,-0.002199999988079071,0.007199999876320362
1702338728859793200,54.87579321289063,-0.03500000014901161,0.007199999876320362,-0.002199999988079071
1702338728959055600,54.9750556640625,-0.025200000032782555,-0.011599999852478504,-0.0023999998811632395
1702338729058319600,55.074319580078125,-0.04490000009536743,-0.00139999995008111,-0.011599999852478504
1702338729157582000,55.17358203125,-0.035099998116493225,-0.011299999430775642,-0.0009999999310821295
1702338729256846300,55.272846435546874,-0.035099998116493225,0.017999999225139618,-0.001500000013038516
1702338729356108800,55.37210888671875,-0.035099998116493225,-0.0015999999595806003,-0.00139999995008111
1702338729455372800,55.47137280273437,-0.025200000032782555,-0.001500000013038516,0.017899999395012856
1702338729554635300,55.57063525390625,-0.025299999862909317,-0.010799999348819256,-0.0011999999405816197
1702338729653897700,55.66989770507813,-0.035099998116493225,0.009099999442696571,-0.0010999999940395355
1702338729753161700,55.76916162109375,-0.035099998116493225,-0.010499999858438969,0.008499999530613422
1702338729852424400,55.86842456054688,-0.035099998116493225,-0.010599999688565731,0.007899999618530273
1702338729951688400,55.9676884765625,-0.035099998116493225,-0.0005999999702908099,0.007499999832361937
1702338730050951000,56.066950927734375,-0.035099998116493225,0.008899999782443047,-0.002099999925121665
1702338730150215000,56.16621484375,-0.01549999974668026,-0.010699999518692493,-0.001999999862164259
1702338730249477400,56.26547729492187,-0.03500000014901161,0.01769999973475933,0.007699999958276749
1702338730348741600,56.36474169921875,-0.03500000014901161,0.007499999832361937,-0.0023999998811632395
1702338730448004000,56.46400415039062,-0.025200000032782555,-0.002199999988079071,-0.002300000051036477
1702338730547268000,56.56326806640625,-0.025200000032782555,0.007699999958276749,-0.00279999990016222
1702338730646530600,56.662530517578126,-0.025200000032782555,-0.011399999260902405,0.006599999964237213
1702338730745793000,56.76179296875,-0.025200000032782555,-0.001500000013038516,0.006099999882280827
1702338730845057300,56.861057373046876,-0.015399999916553497,-0.0015999999595806003,0.006799999624490738
1702338730944319700,56.96031982421875,-0.04490000009536743,-0.0011999999405816197,0.006799999624490738
1702338731043583700,57.05958374023437,-0.03500000014901161,-0.01119999960064888,-0.0023999998811632395
1702338731142846200,57.15884619140625,-0.025200000032782555,-0.011099999770522118,-0.002699999837204814
1702338731242110200,57.25811010742188,-0.025200000032782555,0.007999999448657036,-0.012000000104308128
1702338731341372700,57.35737255859375,-0.025200000032782555,-0.0011999999405816197,0.0066999997943639755
1702338731440637000,57.45663696289063,-0.025200000032782555,0.00839999970048666,-0.003000000026077032
1702338731539899400,57.5558994140625,-0.035099998116493225,-0.010599999688565731,0.006199999712407589
1702338731639163400,57.655163330078125,-0.025200000032782555,-0.0005999999702908099,0.00559999980032444
1702338731738425900,57.75442578125,-0.04490000009536743,-0.0005999999702908099,0.006300000008195639
1702338731837689900,57.85368994140625,-0.025299999862909317,-0.00989999994635582,0.005399999674409628
1702338731936952600,57.95295263671875,-0.025200000032782555,-0.000699999975040555,-0.00419999985024333
1702338732036215000,58.05221508789062,-0.025200000032782555,0.008899999782443047,0.006099999882280827
1702338732135479000,58.15147900390625,-0.035099998116493225,-0.0007999999797903001,-0.003399999812245369
1702338732234741500,58.25074145507813,-0.03500000014901161,0.01850000023841858,-0.0031999999191612005
1702338732334005500,58.35000561523437,-0.025200000032782555,0.008499999530613422,0.006300000008195639
1702338732433268200,58.44926831054688,-0.025200000032782555,-0.0013000000035390258,-0.002699999837204814
1702338732532532200,58.5485322265625,-0.035099998116493225,-0.010799999348819256,-0.0018999999156221747
1702338732631794700,58.647794677734375,-0.04479999840259552,0.007699999958276749,-0.011299999430775642
1702338732731058700,58.74705859375,-0.03500000014901161,-0.002099999925121665,-0.0017999999690800905
1702338732830321200,58.84632104492187,-0.025200000032782555,0.006599999964237213,0.007899999618530273
1702338732929585400,58.94558544921875,-0.025200000032782555,0.016099998727440834,-0.001999999862164259
1702338733028847900,59.04484790039062,-0.025200000032782555,0.0064999996684491634,0.00839999970048666
1702338733128111900,59.14411181640625,-0.03500000014901161,-0.002899999963119626,-0.0008999999845400453
1702338733227374300,59.243374267578126,-0.025200000032782555,-0.012199999764561653,0.008899999782443047
1702338733326636800,59.34263671875,-0.03500000014901161,-0.01269999984651804,0.007999999448657036
1702338733425900800,59.44190087890625,-0.025200000032782555,0.005699999630451202,0.008299999870359898
1702338733525163500,59.54116357421875,-0.00559999980032444,-0.0038999998942017555,0.007699999958276749
1702338733624427500,59.64042749023437,-0.03500000014901161,-0.0037999998312443495,0.007599999662488699
1702338733723690000,59.73968994140625,-0.025200000032782555,-0.013399999588727951,0.007599999662488699
1702338733822954000,59.8389541015625,-0.03500000014901161,0.006399999838322401,0.007199999876320362
1702338733922216400,59.938216552734374,-0.03500000014901161,0.006099999882280827,-0.011799999512732029
1702338734021479200,60.03747924804688,-0.025200000032782555,0.006199999712407589,-0.001999999862164259
1702338734120743200,60.1367431640625,-0.015399999916553497,-0.0031999999191612005,-0.011099999770522118
1702338734220007200,60.236007080078124,-0.025200000032782555,-0.00279999990016222,0.007799999788403511
1702338734319269600,60.33526953125,-0.025200000032782555,0.0066999997943639755,-0.0016999999061226845
1702338734418533600,60.43453369140625,-0.03500000014901161,-0.002699999837204814,-0.0016999999061226845
1702338734517796400,60.53379638671875,-0.015399999916553497,0.006799999624490738,-0.0016999999061226845
1702338734617060400,60.63306030273438,-0.025200000032782555,-0.002699999837204814,-0.002099999925121665
1702338734716322800,60.73232275390625,-0.03500000014901161,-0.002300000051036477,-0.011299999430775642
1702338734815585300,60.83158520507813,-0.03500000014901161,-0.002300000051036477,-0.0009999999310821295
1702338734914847700,60.93084765625,-0.03500000014901161,-0.0026000000070780516,-0.0008999999845400453
1702338735014111700,61.03011181640625,-0.03500000014901161,0.007199999876320362,0.01809999905526638
1702338735113376000,61.1293759765625,-0.015399999916553497,-0.002699999837204814,-0.0017999999690800905
1702338735212638500,61.228638427734374,-0.025200000032782555,-0.0023999998811632395,-0.002300000051036477
1702338735311902500,61.32790234375,-0.025200000032782555,0.007699999958276749,0.007599999662488699
1702338735411165000,61.4271650390625,-0.03500000014901161,-0.012000000104308128,-0.011899999342858791
1702338735510427400,61.526427490234376,-0.03500000014901161,-0.0018999999156221747,0.008100000210106373
1702338735609691600,61.62569165039063,-0.015399999916553497,0.007499999832361937,-0.0011999999405816197
1702338735708954000,61.7249541015625,-0.03500000014901161,-0.011699999682605267,-0.0011999999405816197
1702338735808218000,61.824218017578126,-0.025200000032782555,-0.0018999999156221747,0.007999999448657036
1702338735907480600,61.92348046875,-0.035099998116493225,-0.011299999430775642,0.008200000040233135
1702338736006744600,62.02274462890625,-0.035099998116493225,-0.0011999999405816197,0.007799999788403511
1702338736106007000,62.12200708007813,-0.04490000009536743,0.01850000023841858,-0.0011999999405816197
1702338736205269800,62.221269775390624,-0.025299999862909317,0.008700000122189522,-0.0011999999405816197
1702338736304533800,62.32053369140625,-0.025200000032782555,0.008200000040233135,-0.001999999862164259
1702338736403796200,62.41979614257812,-0.025299999862909317,-0.0009999999310821295,-0.0016999999061226845
1702338736503060200,62.519060302734374,-0.025200000032782555,-0.00139999995008111,0.008299999870359898
1702338736602322700,62.61832275390625,-0.04490000009536743,-0.0011999999405816197,0.007599999662488699
1702338736701587000,62.7175869140625,-0.035099998116493225,-0.0011999999405816197,0.007499999832361937
1702338736800849400,62.816849365234376,-0.025299999862909317,-0.000699999975040555,-0.011799999512732029
1702338736900113400,62.91611352539063,-0.035099998116493225,-0.0005999999702908099,-0.021199999377131462
1702338736999376000,63.0153759765625,-0.035099998116493225,-0.010400000028312206,-0.0023999998811632395
1702338737098640000,63.114639892578126,-0.025299999862909317,0.008999999612569809,-0.0024999999441206455
1702338737197902600,63.21390258789062,-0.035099998116493225,-0.0004999999655410647,-0.02199999988079071
1702338737297165000,63.3131650390625,-0.035099998116493225,-0.00029999998514540493,0.0072999997064471245
1702338737396429000,63.41242895507813,-0.025299999862909317,-0.00029999998514540493,-0.002099999925121665
1702338737495693000,63.51169311523437,-0.025299999862909317,-0.010699999518692493,0.016999999061226845
1702338737594955500,63.61095556640625,-0.015399999916553497,-0.02070000022649765,0.007400000002235174
1702338737694218000,63.71021801757813,-0.015399999916553497,0.008700000122189522,0.01640000008046627
1702338737793482200,63.809482177734374,-0.03500000014901161,-0.0010999999940395355,-0.0032999999821186066
1702338737892744700,63.90874462890625,-0.03500000014901161,0.008499999530613422,-0.0024999999441206455
1702338737992008700,64.0080087890625,-0.025200000032782555,0.008100000210106373,0.0071000000461936
1702338738091271200,64.10727124023437,-0.025200000032782555,0.008200000040233135,0.006899999920278788
1702338738190535200,64.20653515625,-0.015399999916553497,0.007699999958276749,-0.002899999963119626
1702338738289798000,64.3057978515625,-0.025200000032782555,-0.0023999998811632395,-0.0026000000070780516
1702338738389062000,64.40506176757812,-0.025200000032782555,-0.0015999999595806003,-0.0023999998811632395
1702338738488324400,64.50432446289062,-0.025200000032782555,-0.0015999999595806003,0.007599999662488699
1702338738587586800,64.6035869140625,-0.025299999862909317,-0.0008999999845400453,-0.011599999852478504
1702338738686850800,64.70285083007812,-0.035099998116493225,0.008999999612569809,0.007400000002235174
1702338738786113500,64.80211352539062,-0.025299999862909317,-0.00009999999747378752,-0.002099999925121665
1702338738885377500,64.90137744140625,-0.04490000009536743,-0.009499999694526196,0.007499999832361937
1702338738984640000,65.00063989257812,-0.025299999862909317,0.009999999776482582,0.0071000000461936
1702338739083904000,65.09990405273437,-0.01549999974668026,0.00019999999494757503,-0.01249999925494194
1702338739183166500,65.19916650390626,-0.035099998116493225,0.009200000204145908,0.007400000002235174
1702338739282430700,65.2984306640625,-0.025299999862909317,0.009200000204145908,0.016699999570846558
1702338739381693200,65.39769311523438,-0.01549999974668026,-0.009399999864399433,0.0066999997943639755
1702338739480957200,65.49695727539063,-0.025299999862909317,-0.009399999864399433,-0.0026000000070780516
1702338739580219600,65.5962197265625,-0.035099998116493225,0.009800000116229057,0.016899999231100082
1702338739679483600,65.69548364257813,-0.035099998116493225,-0.008700000122189522,-0.002699999837204814
1702338739778746000,65.79474609375,-0.025299999862909317,-0.00839999970048666,-0.002699999837204814
1702338739878008800,65.8940087890625,-0.035099998116493225,0.010199999436736107,0.006899999920278788
1702338739977272800,65.99327294921875,-0.035099998116493225,0.000699999975040555,-0.0030999998562037945
1702338740076535300,66.09253540039063,-0.035099998116493225,-0.009399999864399433,-0.003399999812245369
1702338740175799300,66.19179931640625,-0.025299999862909317,0.0005999999702908099,-0.012999999336898327
1702338740275061800,66.29106176757813,-0.01549999974668026,0.0013000000035390258,0.006599999964237213
1702338740374326000,66.39032592773438,-0.035099998116493225,0.010499999858438969,-0.00279999990016222
1702338740473588500,66.48958837890625,-0.025299999862909317,-0.009499999694526196,-0.002300000051036477
1702338740572852500,66.5888525390625,-0.025299999862909317,0.00969999935477972,-0.002300000051036477
1702338740672115000,66.68811499023437,-0.01549999974668026,0.00930000003427267,-0.0018999999156221747
1702338740771379000,66.78737890625,-0.035099998116493225,-0.0011999999405816197,0.007599999662488699
1702338740870641700,66.8866416015625,-0.035099998116493225,-0.010999999940395355,0.007400000002235174
1702338740969904000,66.98590405273437,-0.04490000009536743,0.01809999905526638,-0.0023999998811632395
1702338741069168000,67.08516821289062,-0.03500000014901161,0.008499999530613422,-0.00279999990016222
1702338741168430600,67.1844306640625,-0.015399999916553497,0.00839999970048666,-0.002699999837204814
1702338741267694600,67.28369458007812,-0.04479999840259552,0.007999999448657036,-0.0023999998811632395
1702338741366957000,67.38295703125,-0.025200000032782555,-0.001999999862164259,0.007699999958276749
1702338741466221300,67.48222119140625,-0.03500000014901161,0.007999999448657036,-0.001999999862164259
1702338741565483800,67.58148388671874,-0.03500000014901161,0.007999999448657036,-0.002199999988079071
1702338741664746200,67.68074633789062,-0.015399999916553497,-0.010699999518692493,-0.002699999837204814
1702338741764010200,67.78001025390626,-0.025200000032782555,0.008299999870359898,-0.002300000051036477
1702338741863272700,67.87927270507812,-0.015399999916553497,-0.010900000110268593,0.0072999997064471245
1702338741962537000,67.97853686523437,-0.015399999916553497,0.008100000210106373,-0.002300000051036477
1702338742061801000,68.07780102539063,-0.025200000032782555,0.007799999788403511,-0.011399999260902405
1702338742161063400,68.1770634765625,-0.03500000014901161,-0.012000000104308128,0.007799999788403511
1702338742260327400,68.27632739257812,-0.03500000014901161,-0.0026000000070780516,-0.0009999999310821295
1702338742359590000,68.37558984375,-0.03500000014901161,-0.01209999993443489,-0.0009999999310821295
1702338742458852400,68.47485229492187,-0.025200000032782555,-0.0016999999061226845,-0.0009999999310821295
1702338742558115000,68.57411499023438,-0.015399999916553497,-0.01119999960064888,-0.0010999999940395355
1702338742657379000,68.67337915039063,-0.03500000014901161,-0.0016999999061226845,0.008599999360740185
1702338742756641500,68.7726416015625,-0.03500000014901161,0.007899999618530273,0.008499999530613422
1702338742855905500,68.87190551757813,-0.03500000014901161,-0.0018999999156221747,-0.010900000110268593
1702338742955169800,68.97116967773438,-0.015399999916553497,-0.00139999995008111,-0.0007999999797903001
1702338743054432300,69.07043237304687,-0.04490000009536743,-0.0013000000035390258,-0.0010999999940395355
1702338743153694700,69.16969482421875,-0.025299999862909317,-0.0009999999310821295,-0.010900000110268593
1702338743252958700,69.26895874023438,-0.035099998116493225,-0.0007999999797903001,0.008499999530613422
1702338743352221200,69.36822119140625,-0.035099998116493225,-0.0007999999797903001,-0.0005999999702908099
1702338743451485200,69.46748510742188,-0.01549999974668026,-0.00039999998989515007,0.009200000204145908
1702338743550748000,69.56674780273437,-0.025299999862909317,-0.0005999999702908099,0.009099999442696571
1702338743650010400,69.66601025390625,-0.04490000009536743,-0.0008999999845400453,0.018400000408291817
1702338743749274400,69.7652744140625,-0.035099998116493225,-0.010300000198185444,-0.010400000028312206
1702338743848536800,69.86453686523437,-0.01549999974668026,0.008899999782443047,-0.00009999999747378752
1702338743947800800,69.96380078125,-0.025299999862909317,-0.0009999999310821295,0.019299998879432678
1702338744047063300,70.06306323242187,-0.035099998116493225,0.00839999970048666,-0.00989999994635582
1702338744146327600,70.16232763671874,-0.025299999862909317,-0.010799999348819256,-0.00969999935477972
1702338744245590000,70.26159008789062,-0.035099998116493225,-0.000699999975040555,0.00039999998989515007
1702338744344854000,70.36085400390625,-0.04490000009536743,-0.010300000198185444,-0.009499999694526196
1702338744444118000,70.46011791992187,-0.025299999862909317,-0.00009999999747378752,0.00009999999747378752
1702338744543380500,70.55938037109375,-0.035099998116493225,0,0.00969999935477972
1702338744642643200,70.65864331054688,-0.025299999862909317,-0.00009999999747378752,0
1702338744741907200,70.7579072265625,-0.025299999862909317,-0.010099999606609344,-0.019199999049305916
1702338744841169700,70.85716967773438,-0.01549999974668026,0.009099999442696571,0.00019999999494757503
1702338744940433700,70.95643359375,-0.04490000009536743,0.008999999612569809,0.009200000204145908
1702338745039696100,71.05569604492187,-0.025299999862909317,0.008999999612569809,0.00969999935477972
1702338745138958800,71.15495874023438,-0.035099998116493225,-0.0009999999310821295,-0.009200000204145908
1702338745238222800,71.25422290039063,-0.025299999862909317,-0.0008999999845400453,0.00039999998989515007
1702338745337485300,71.3534853515625,-0.05469999834895134,-0.001500000013038516,-0.00039999998989515007
1702338745436749300,71.45274926757813,-0.9470999836921692,-0.1882999986410141,0.5575000047683716
1702338745536011800,71.55201171875,-0.06459999829530716,-0.04659999907016754,-0.10869999974966049
1702338745635276000,71.65127612304687,0.014499999582767487,0.07819999754428864,-0.06669999659061432
1702338745734538500,71.75053857421875,0.3685999810695648,0.15160000324249268,-0.8118999600410461
1702338745833802500,71.84980249023438,-0.21869999170303345,0.11879999935626984,0.0632999986410141
1702338745933065000,71.94906494140625,0.02630000002682209,-0.01719999872148037,-0.2019999921321869
1702338746032329000,72.04832885742188,-0.11079999804496765,0.052799999713897705,-0.11639999598264694
1702338746131591400,72.14759130859375,0.08540000021457672,-0.060999996960163116,-0.14739999175071716
1702338746230855700,72.24685571289062,-0.23729999363422394,-0.11840000003576279,1.042699933052063
1702338746330118100,72.3461181640625,-0.08509999513626099,-0.05209999904036522,-0.14259999990463257
1702338746429380600,72.44538061523437,0.05260000005364418,-0.08489999920129776,-0.2021999955177307
1702338746528644600,72.54464453125,-0.05469999834895134,-1.1187000274658203,-0.2807999849319458
1702338746627907000,72.64390698242188,0.20709998905658722,0.010199999436736107,0.7181000113487244
1702338746727171300,72.74317138671876,-0.14669999480247498,-0.45179998874664307,0.16759999096393585
1702338746826433800,72.84243383789062,-0.3224000036716461,0.09259999543428421,-0.45260000228881836
1702338746925697800,72.94169775390625,1.8166999816894531,0.5022000074386597,-0.20719999074935913
1702338747024960300,73.04096020507812,-0.49139997363090515,0.7566999793052673,-1.574199914932251
1702338747124224300,73.14022436523437,0.14469999074935913,-0.05429999902844429,-0.35040000081062317
1702338747223487000,73.23948706054688,0.025499999523162842,-0.05979999899864197,-0.040699999779462814
1702338747322751000,73.3387509765625,-0.1825999915599823,0.125900000333786,0.24249999225139618
1702338747422013400,73.43801342773438,-0.02579999901354313,0.32089999318122864,-0.7073999643325806
1702338747521276000,73.53727587890624,-0.19419999420642853,-0.39100000262260437,0.11549999564886093
1702338747620540000,73.63653979492187,-0.21549999713897705,-0.7274999618530273,0.2847000062465668
1702338747719804200,73.73580419921875,-0.13329999148845673,1.7416999340057373,-0.27789998054504395
1702338747819066600,73.83506665039063,0.11069999635219574,1.9291999340057373,-1.9703999757766724
1702338747918330600,73.93433056640625,0.19979999959468842,0.8370999693870544,-1.1064000129699707
1702338748017593000,74.03359301757813,0.29510000348091125,-0.367499977350235,0.4156999886035919
1702338748116855600,74.13285546875,0.13269999623298645,-0.6243999600410461,0.4544000029563904
1702338748216119600,74.23211962890625,1.7720999717712402,1.0609999895095825,0.8889999985694885
1702338748315382300,74.33138232421875,1.4264999628067017,1.0049999952316284,1.2774999141693115
1702338748414646300,74.43064624023438,-0.10159999877214432,0.4921000003814697,0.6615999937057495
1702338748513908700,74.52990869140625,0.5048999786376953,-0.654699981212616,-0.9337999820709229
1702338748613172700,74.6291728515625,-1.5835999250411987,-0.41909998655319214,-2.0058999061584473
1702338748712435200,74.72843530273437,0.25029999017715454,-0.12229999899864197,-1.8050999641418457
1702338748811697700,74.82769775390625,-0.8007000088691711,0.4813999831676483,-0.711899995803833
1702338748910962000,74.9269619140625,-1.6667999029159546,0.210099995136261,-0.6026999950408936
1702338749010224400,75.02622436523437,-0.2831999957561493,-0.03229999914765358,-1.1449999809265137
1702338749109488400,75.12548828125,-0.10509999841451645,-0.2733999788761139,0.7013999819755554
1702338749208750800,75.22475073242188,-0.20879998803138733,0.23119999468326569,0.9228000044822693
1702338749308015000,75.32401513671876,-0.23079998791217804,-0.5493999719619751,-0.7421999573707581
1702338749407277600,75.42327758789062,-0.0794999971985817,-0.7684999704360962,-0.12759999930858612
1702338749506541600,75.52254150390625,-0.4309999942779541,0.3642999827861786,0.42989999055862427
1702338749605804000,75.62180395507812,4.83519983291626,-2.0277998447418213,-2.7151999473571777
1702338749705068000,75.72106811523437,0.024899998679757118,-0.03529999777674675,-0.1947999894618988
1702338749804330500,75.82033056640626,0.024799998849630356,-0.061400000005960464,-0.24859999120235443
1702338749903593200,75.91959326171875,-0.2402999997138977,0.03929999843239784,-0.3042999804019928
1702338750002857200,76.01885717773438,-0.12280000001192093,-0.040300000458955765,-0.25049999356269836
1702338750102121200,76.11812133789063,-0.005200000014156103,-0.05119999870657921,-0.2671000063419342
1702338750201383700,76.2173837890625,-0.0052999998442828655,-0.060999996960163116,-0.2759999930858612
1702338750300647700,76.31664770507813,-0.005399999674409628,-0.031599998474121094,-0.274399995803833
1702338750399908600,76.41590869140624,-0.04479999840259552,-0.06079999729990959,-0.25130000710487366
1702338750499174400,76.51517431640625,-0.005699999630451202,-0.04089999943971634,-0.2671999931335449
1702338750598436900,76.61443676757813,-0.015799999237060547,-0.050200000405311584,-0.2615000009536743
1702338750697699300,76.71369921875,-0.01719999872148037,-0.04479999840259552,-0.2230999916791916
1702338750796963300,76.81296337890625,-0.01860000006854534,-0.030299998819828033,-0.1922999918460846
1702338750896225800,76.91222583007813,-0.019700000062584877,-0.016599999740719795,-0.16519999504089355
1702338750995490000,77.01148999023438,-0.040300000458955765,-0.022299999371170998,-0.1298999935388565
1702338751094752500,77.11075244140625,-0.03139999881386757,-0.017899999395012856,-0.10779999941587448
1702338751194015000,77.21001489257813,-0.04179999977350235,-0.024699999019503593,-0.10809999704360962
1702338751293279000,77.30927905273437,-0.022699998691678047,-0.022299999371170998,-0.08419999480247498
1702338751392541400,77.40854150390625,-0.03280000016093254,-0.010699999518692493,-0.0835999995470047
1702338751491804200,77.50780419921875,-0.042899999767541885,-0.01889999955892563,-0.07459999620914459
1702338751591068200,77.60706811523437,-0.04309999942779541,-0.008799999952316284,-0.05829999968409538
1702338751690330600,77.70633056640625,-0.053199999034404755,-0.016699999570846558,-0.04089999943971634
1702338751789594600,77.8055947265625,-0.023899998515844345,0.004100000020116568,-0.034299999475479126
1702338751888857000,77.90485717773437,-0.033900000154972076,-0.004399999976158142,-0.04820000007748604
1702338751988121300,78.00412133789062,-0.02419999986886978,0.014800000004470348,-0.03350000083446503
1702338752087385300,78.10338525390625,-0.04389999806880951,-0.013199999928474426,-0.03059999831020832
1702338752186647800,78.20264770507812,-0.024399999529123306,-0.012799999676644802,-0.04580000042915344
1702338752285910300,78.30191015625,-0.014699999243021011,-0.01249999925494194,-0.02199999988079071
1702338752385174300,78.40117431640626,-0.03439999744296074,-0.01209999993443489,-0.030399998649954796
1702338752484436700,78.50043676757812,-0.014800000004470348,-0.010900000110268593,-0.03739999979734421
1702338752583701000,78.59970092773438,-0.04429999738931656,-0.000699999975040555,-0.02630000002682209
1702338752682963500,78.69896337890626,-0.04429999738931656,0,-0.0340999998152256
1702338752782226000,78.79822583007812,-0.04439999908208847,-0.00930000003427267,-0.012799999676644802
1702338752881490000,78.89748999023438,-0.03460000082850456,-0.009499999694526196,-0.009999999776482582
1702338752980752400,78.99675244140624,-0.034699998795986176,-0.008999999612569809,-0.008499999530613422
1702338753080016600,79.0960166015625,-0.015099999494850636,-0.008499999530613422,-0.026899999007582664
1702338753179279000,79.19527905273438,-0.044599998742341995,0.00139999995008111,0.003599999938160181
1702338753278543000,79.29454321289063,-0.03480000048875809,0.001500000013038516,-0.005200000014156103
1702338753377805600,79.3938056640625,-0.03480000048875809,-0.008100000210106373,-0.0139999995008111
1702338753477069600,79.49306958007813,-0.02499999850988388,-0.007999999448657036,-0.003000000026077032
1702338753576332300,79.59233227539063,-0.025100000202655792,0.0016999999061226845,-0.010400000028312206
1702338753675596300,79.69159619140625,-0.0348999984562397,0.011299999430775642,-0.009399999864399433
1702338753774858800,79.79085864257813,0.00419999985024333,-0.019199999049305916,-0.008200000040233135
1702338753874122800,79.89012280273438,-0.04470000043511391,-0.009599999524652958,0.001999999862164259
1702338753973385200,79.98938525390625,-0.0348999984562397,-0.009800000116229057,-0.017099998891353607
1702338754072647700,80.08864770507813,-0.0348999984562397,0,-0.006300000008195639
1702338754171912000,80.18791186523437,-0.0348999984562397,-0.01899999938905239,-0.005699999630451202
1702338754271174400,80.28717431640625,-0.0348999984562397,0.0005999999702908099,-0.005499999970197678
1702338754370438400,80.3864384765625,-0.05460000038146973,0.010400000028312206,0.014699999243021011
1702338754469700900,80.48570092773437,-0.03500000014901161,-0.008999999612569809,0.015399999916553497
1702338754568964900,80.58496484375,-0.025200000032782555,0.0008999999845400453,0.014999999664723873
1702338754668227600,80.6842275390625,-0.03500000014901161,0.000699999975040555,-0.0038999998942017555
1702338754767491600,80.78349169921874,-0.025200000032782555,0.0004999999655410647,-0.00279999990016222
1702338754866754000,80.88275415039062,-0.05460000038146973,0.0005999999702908099,0.01640000008046627
1702338754966018000,80.98201806640625,-0.00559999980032444,-0.007899999618530273,-0.002099999925121665
1702338755065280500,81.08128051757812,-0.025200000032782555,0.002099999925121665,-0.002199999988079071
1702338755164544800,81.18054467773437,-0.025200000032782555,0.001500000013038516,-0.021299999207258224
1702338755263807200,81.27980712890626,-0.06439999490976334,0.0013000000035390258,0.007899999618530273
1702338755363071200,81.3790712890625,-0.025200000032782555,0.011699999682605267,0.0072999997064471245
1702338755462333700,81.47833374023438,-0.025200000032782555,-0.007499999832361937,-0.002300000051036477
1702338755561596200,81.57759619140624,-0.035099998116493225,-0.006599999964237213,0.007400000002235174
1702338755660860400,81.6768603515625,-0.06449999660253525,-0.006099999882280827,0.01719999872148037
1702338755760123000,81.77612280273438,-0.035099998116493225,-0.005200000014156103,0.016699999570846558
1702338755859387000,81.87538696289063,-0.025299999862909317,0.0044999998062849045,0.01640000008046627
1702338755958649300,81.9746494140625,-0.025299999862909317,0.004100000020116568,-0.003000000026077032
1702338756057913300,82.07391333007813,-0.00559999980032444,0.003399999812245369,0.0064999996684491634
1702338756157175800,82.17317578125,-0.03500000014901161,0.003399999812245369,-0.003599999938160181
1702338756256440000,82.27244018554687,-0.05460000038146973,0.003399999812245369,-0.02369999885559082
1702338756355702500,82.37170263671875,-0.03500000014901161,-0.006099999882280827,-0.003399999812245369
1702338756454965000,82.47096508789062,-0.025299999862909317,0.003999999724328518,-0.022699998691678047
1702338756554229000,82.57022900390625,-0.07429999858140945,-0.005799999926239252,0.006599999964237213
1702338756653491500,82.66949145507813,-0.035099998116493225,-0.0058999997563660145,0.00699999975040555
1702338756752755700,82.76875561523437,-0.015399999916553497,0.013700000010430813,0.006599999964237213
1702338756852018200,82.86801806640625,-0.01549999974668026,0.003399999812245369,0.007400000002235174
1702338756951282200,82.9672822265625,-0.035099998116493225,0.0030999998562037945,0.007499999832361937
1702338757050544600,83.06654467773437,-0.05469999834895134,0.012399999424815178,-0.01249999925494194
1702338757149808600,83.16580859375,-0.03500000014901161,-0.007400000002235174,-0.002300000051036477
1702338757249071000,83.26507104492188,-0.035099998116493225,0.0024999999441206455,-0.0016999999061226845
1702338757348335400,83.36433544921876,-0.015399999916553497,0.0023999998811632395,0.01730000041425228
1702338757447597800,83.46359790039062,-0.03500000014901161,0.011500000022351742,0.007599999662488699
1702338757546861800,83.56286181640625,-0.015399999916553497,-0.007499999832361937,-0.0016999999061226845
1702338757646124300,83.66212426757812,-0.03500000014901161,0.0023999998811632395,-0.011699999682605267
1702338757745386800,83.76138671875,-0.03500000014901161,-0.007599999662488699,-0.011399999260902405
1702338757844649500,83.8606494140625,-0.025200000032782555,0.002300000051036477,0.02759999968111515
1702338757943913500,83.95991357421875,-0.035099998116493225,0.002300000051036477,-0.00139999995008111
1702338758043176000,84.05917602539063,-0.03500000014901161,0.002199999988079071,-0.0015999999595806003
1702338758142440000,84.15843994140624,-0.03500000014901161,0.002199999988079071,0.007899999618530273
1702338758241704000,84.25770385742187,-0.04490000009536743,-0.007899999618530273,0.018799999728798866
1702338758340966700,84.35696655273438,-0.05469999834895134,0.001500000013038516,0.008700000122189522
1702338758440230700,84.45623071289063,-0.025200000032782555,0.0009999999310821295,0.008799999952316284
1702338758539493000,84.5554931640625,-0.03500000014901161,0.0013000000035390258,-0.0011999999405816197
1702338758638755600,84.65475561523438,-0.025200000032782555,-0.008700000122189522,-0.0016999999061226845
1702338758738019600,84.75401953125,-0.025200000032782555,-0.008499999530613422,0.007999999448657036
1702338758837283800,84.85328393554687,-0.025200000032782555,-0.008599999360740185,-0.0011999999405816197
1702338758936546300,84.95254638671875,-0.03500000014901161,0.0010999999940395355,-0.010499999858438969
1702338759035808800,85.05180883789062,-0.025299999862909317,-0.008200000040233135,-0.00009999999747378752
1702338759135072800,85.15107275390625,-0.015399999916553497,0.010799999348819256,0.009499999694526196
1702338759234335200,85.25033520507813,-0.04490000009536743,-0.008700000122189522,0.019199999049305916
1702338759333597700,85.34959765625,-0.025299999862909317,0.001500000013038516,-0.00019999999494757503
1702338759432862000,85.44886206054687,-0.025299999862909317,0.001999999862164259,-0.010499999858438969
1702338759532124400,85.54812451171875,-0.025299999862909317,-0.007400000002235174,-0.0005999999702908099
1702338759631388400,85.64738842773437,-0.01549999974668026,0.002199999988079071,-0.00930000003427267
1702338759730651000,85.74665087890625,-0.035099998116493225,-0.006899999920278788,0.009499999694526196
1702338759829915000,85.84591479492188,-0.04490000009536743,0.002899999963119626,0.00009999999747378752
1702338759929177600,85.94517749023437,-0.04490000009536743,-0.006399999838322401,0.00029999998514540493
1702338760028441600,86.04444165039062,-0.035099998116493225,0.013100000098347664,-0.00029999998514540493
1702338760127704000,86.1437041015625,-0.025299999862909317,0.012999999336898327,-0.010099999606609344
1702338760226968000,86.24296801757812,-0.04490000009536743,-0.006300000008195639,0.009800000116229057
1702338760326230500,86.34223046875,-0.035099998116493225,0.012799999676644802,0.00989999994635582
1702338760425494800,86.44149487304688,-0.035099998116493225,-0.006099999882280827,0.008599999360740185
1702338760524757200,86.54075732421875,-0.01549999974668026,0.003599999938160181,0.007999999448657036
1702338760624019700,86.64001977539063,-0.025299999862909317,-0.005699999630451202,-0.002199999988079071
1702338760723283700,86.73928369140626,-0.025299999862909317,0.003499999875202775,-0.0024999999441206455
1702338760822546200,86.83854614257812,-0.015399999916553497,0.003599999938160181,-0.002899999963119626
1702338760921810200,86.93781005859375,-0.035099998116493225,-0.0058999997563660145,-0.002300000051036477
1702338761021073000,87.03707299804688,-0.025200000032782555,0.012999999336898327,-0.0023999998811632395
1702338761120337000,87.1363369140625,-0.05469999834895134,0.0031999999191612005,-0.012000000104308128
1702338761219599400,87.23559936523438,0.003999999724328518,-0.015799999237060547,0.007899999618530273
1702338761318863400,87.33486328125,-0.025299999862909317,-0.015599999576807022,0.0066999997943639755
1702338761418125800,87.43412573242188,-0.03500000014901161,0.0038999998942017555,0.005799999926239252
1702338761517390000,87.53339013671875,-0.04479999840259552,0.003399999812245369,-0.004100000020116568
1702338761616652500,87.63265258789062,-0.025200000032782555,0.003399999812245369,-0.003999999724328518
1702338761715916500,87.73191650390625,-0.03500000014901161,0.003399999812245369,0.005399999674409628
1702338761815179000,87.83117895507813,-0.025200000032782555,0.012799999676644802,0.005399999674409628
1702338761914441500,87.93044140625,-0.03500000014901161,-0.006599999964237213,0.004799999762326479
1702338762013705700,88.02970581054687,-0.04479999840259552,-0.006599999964237213,-0.004900000058114529
1702338762112968200,88.12896826171875,-0.015399999916553497,-0.006000000052154064,0.004900000058114529
1702338762212232200,88.22823217773437,-0.025200000032782555,-0.0058999997563660145,0.00419999985024333
1702338762311494700,88.32749462890625,-0.04479999840259552,0.013299999758601189,0.003999999724328518
1702338762410758700,88.42675854492188,-0.00559999980032444,0.012600000016391277,0.00419999985024333
1702338762510021000,88.52602124023437,-0.03500000014901161,-0.006799999624490738,0.0139999995008111
1702338762609285400,88.62528540039062,-0.025200000032782555,-0.006599999964237213,0.0037999998312443495
1702338762708547800,88.7245478515625,-0.03500000014901161,-0.006599999964237213,-0.005699999630451202
1702338762807811800,88.82381176757812,-0.025200000032782555,0.012299999594688416,0.00419999985024333
1702338762907074300,88.92307421875,-0.025200000032782555,0.002699999837204814,0.004699999932199717
1702338763006336800,89.02233666992187,-0.025200000032782555,0.0030999998562037945,0.004999999888241291
1702338763105601000,89.12160107421874,-0.03500000014901161,0.0031999999191612005,0.014099999330937862
1702338763204863500,89.22086352539063,-0.03500000014901161,-0.0064999996684491634,-0.004999999888241291
1702338763304127500,89.32012744140626,-0.025200000032782555,0.0032999999821186066,-0.014999999664723873
1702338763403390000,89.41938989257812,-0.03500000014901161,0.003599999938160181,-0.0050999997183680534
1702338763502654000,89.51865405273438,-0.015399999916553497,0.003700000001117587,-0.0050999997183680534
1702338763601916400,89.61791650390624,-0.03500000014901161,-0.006199999712407589,0.0044999998062849045
1702338763701180700,89.7171806640625,-0.03500000014901161,0.002699999837204814,0.004100000020116568
1702338763800443100,89.81644311523438,-0.03500000014901161,0.022499999031424522,0.003999999724328518
1702338763899707100,89.91570703125,-0.015399999916553497,0.0030999998562037945,-0.006000000052154064
1702338763998969600,90.01496948242188,-0.025200000032782555,-0.006899999920278788,-0.006099999882280827
1702338764098233900,90.11423388671875,-0.025200000032782555,-0.006399999838322401,-0.005499999970197678
1702338764197496300,90.21349633789063,-0.025200000032782555,0.013100000098347664,-0.0052999998442828655
1702338764296758800,90.3127587890625,-0.03500000014901161,0.0031999999191612005,-0.0050999997183680534
1702338764396022800,90.41202270507813,-0.03500000014901161,0.003000000026077032,0.004600000102072954
1702338764495285200,90.51128515625,-0.015399999916553497,-0.006300000008195639,0.004600000102072954
1702338764594549200,90.61054931640625,-0.04479999840259552,0.00279999990016222,-0.013899999670684338
1702338764693812000,90.70981201171875,-0.03500000014901161,0.002699999837204814,-0.004699999932199717
1702338764793076000,90.80907592773437,-0.025200000032782555,0.012000000104308128,-0.004799999762326479
1702338764892338400,90.90833837890625,-0.025200000032782555,0.01119999960064888,0.004600000102072954
1702338764991602400,91.0076025390625,-0.0348999984562397,0.010699999518692493,-0.0052999998442828655
1702338765090865000,91.10686499023437,-0.025100000202655792,0.0009999999310821295,-0.005499999970197678
1702338765190129200,91.20612915039062,-0.01529999915510416,-0.008700000122189522,0.003999999724328518
1702338765289391600,91.3053916015625,-0.03500000014901161,-0.008700000122189522,-0.0050999997183680534
1702338765388655600,91.40465551757812,-0.03500000014901161,0.0008999999845400453,0.004600000102072954
1702338765487918000,91.50391796875,-0.025200000032782555,0.010999999940395355,-0.005200000014156103
1702338765587180500,91.6031806640625,-0.04479999840259552,0.010699999518692493,-0.004900000058114529
1702338765686444500,91.70244458007812,-0.06439999490976334,-0.007999999448657036,0.0050999997183680534
1702338765785707300,91.80170727539063,-0.015399999916553497,0.011599999852478504,-0.032600000500679016
1702338765884971300,91.90097119140626,-0.025200000032782555,-0.0072999997064471245,-0.00279999990016222
1702338765984233700,92.00023364257812,-0.025200000032782555,0.011899999342858791,-0.0018999999156221747
1702338766083497700,92.09949780273438,-0.025200000032782555,-0.0071000000461936,0.0071000000461936
1702338766182760200,92.19876025390624,-0.03500000014901161,0.01269999984651804,-0.02199999988079071
1702338766282023000,92.29802294921875,-0.04490000009536743,-0.006799999624490738,-0.012299999594688416
1702338766381287000,92.39728686523438,-0.04479999840259552,-0.006799999624490738,0.006899999920278788
1702338766480551000,92.49655102539063,-0.015399999916553497,0.0026000000070780516,-0.002899999963119626
1702338766579813400,92.5958134765625,-0.025200000032782555,0.0030999998562037945,-0.012399999424815178
1702338766679075800,92.69507592773438,-0.025299999862909317,0.01249999925494194,0.008700000122189522
1702338766778340000,92.79434008789063,-0.025299999862909317,0.002199999988079071,0.008700000122189522
1702338766877602600,92.8936025390625,-0.035099998116493225,0.002199999988079071,0.008200000040233135
1702338766976865000,92.99286499023438,-0.025200000032782555,0.001500000013038516,-0.0009999999310821295
1702338767076129000,93.09212890625,-0.03500000014901161,-0.008700000122189522,-0.011099999770522118
1702338767175391500,93.1913916015625,-0.025200000032782555,0.009999999776482582,-0.010199999436736107
1702338767274655500,93.29065551757813,-0.025200000032782555,0.0007999999797903001,0.008899999782443047
1702338767373919700,93.38991967773437,-0.025200000032782555,0.010199999436736107,0.017099998891353607
1702338767473182200,93.48918212890625,-0.00559999980032444,-0.01850000023841858,0.00699999975040555
1702338767572446200,93.5884462890625,-0.025200000032782555,0.0016999999061226845,-0.0026000000070780516
1702338767671708700,93.68770874023437,-0.00559999980032444,-0.008200000040233135,-0.0023999998811632395
1702338767770971100,93.78697119140625,-0.03500000014901161,0.000699999975040555,-0.003000000026077032
1702338767870235400,93.8862353515625,-0.04479999840259552,0.0210999995470047,0.006899999920278788
1702338767969499400,93.98549951171876,-0.015399999916553497,0.001999999862164259,-0.0030999998562037945
1702338768068761900,94.08476196289062,-0.025200000032782555,0.002099999925121665,-0.0031999999191612005
1702338768168024300,94.1840244140625,-0.03500000014901161,0.0023999998811632395,0.006399999838322401
1702338768267286800,94.28328686523437,-0.025200000032782555,0.01209999993443489,-0.0037999998312443495
1702338768366551000,94.38255102539063,-0.03500000014901161,-0.007699999958276749,-0.0037999998312443495
1702338768465815000,94.48181494140626,-0.025200000032782555,0.002099999925121665,0.006000000052154064
1702338768565077500,94.58107739257812,-0.025200000032782555,0.012000000104308128,0.006199999712407589
1702338768664340000,94.68034008789063,-0.04479999840259552,0.012000000104308128,-0.003499999875202775
1702338768763604000,94.77960400390624,-0.03500000014901161,0.001999999862164259,-0.003399999812245369
1702338768862866400,94.87886645507812,0.03350000083446503,0.03949999809265137,0.11599999666213989
1702338768962130700,94.97813061523438,-0.04490000009536743,0.019700000062584877,-0.06639999896287918
1702338769061393200,95.07739306640624,-0.05469999834895134,0.010300000198185444,0.011399999260902405
1702338769160657200,95.1766572265625,-0.04490000009536743,0.0004999999655410647,0.011599999852478504
1702338769259919600,95.27591967773438,-0.025299999862909317,-0.00930000003427267,0.012299999594688416
1702338769359182000,95.37518212890625,-0.04490000009536743,0.010599999688565731,0.022099999710917473
1702338769458446300,95.4744462890625,-0.05469999834895134,-0.00009999999747378752,0.003599999938160181
1702338769557708800,95.57370874023438,-0.035099998116493225,0.00009999999747378752,0.013100000098347664
1702338769656972800,95.67297290039062,-0.025299999862909317,0.00009999999747378752,0.003499999875202775
1702338769756235300,95.7722353515625,-0.025299999862909317,0.009800000116229057,0.003000000026077032
1702338769855499300,95.87149926757813,-0.025299999862909317,0,0.012600000016391277
1702338769954761700,95.97076171875,-0.035099998116493225,0.00029999998514540493,0.012000000104308128
1702338770054026000,96.07002587890625,-0.035099998116493225,-0.019600000232458115,0.012199999764561653
1702338770153288400,96.16928833007813,-0.025299999862909317,-0.00009999999747378752,0.001500000013038516
1702338770252552400,96.26855249023437,0.013899999670684338,-0.009999999776482582,0.010499999858438969
1702338770351815000,96.36781494140625,-0.03500000014901161,-0.00009999999747378752,0.00930000003427267
1702338770451079200,96.4670791015625,-0.03500000014901161,-0.00969999935477972,-0.00019999999494757503
1702338770550341600,96.56634155273437,-0.025200000032782555,0.008999999612569809,0.00969999935477972
1702338770649604000,96.66560400390625,-0.00559999980032444,0.008899999782443047,0.00019999999494757503
1702338770748868000,96.7648681640625,-0.025200000032782555,0.009499999694526196,0.019199999049305916
1702338770848130600,96.86413061523437,-0.04479999840259552,-0.009800000116229057,0.00930000003427267
1702338770947394600,96.96339453125,-0.025200000032782555,-0.008799999952316284,0.009099999442696571
1702338771046657300,97.0626572265625,-0.025200000032782555,0.0010999999940395355,-0.0009999999310821295
1702338771145921300,97.16192138671875,-0.05460000038146973,0.0010999999940395355,0.008100000210106373
1702338771245183700,97.26118383789063,-0.025200000032782555,-0.01730000041425228,0.017099998891353607
1702338771344447700,97.36044775390624,-0.025299999862909317,-0.007400000002235174,0.008499999530613422
1702338771443710200,97.45971020507812,-0.025299999862909317,0.012399999424815178,0.00839999970048666
1702338771542974500,97.55897436523438,-0.025200000032782555,-0.00699999975040555,0.007400000002235174
1702338771642237000,97.65823681640624,-0.015399999916553497,0.011899999342858791,-0.012000000104308128
1702338771741501000,97.7575009765625,-0.04479999840259552,0.002099999925121665,0.007499999832361937
1702338771840763400,97.85676342773438,-0.03500000014901161,0.00279999990016222,0.026799999177455902
1702338771940025900,97.95602587890625,-0.015399999916553497,0.00279999990016222,0.0072999997064471245
1702338772039289900,98.05528979492188,-0.015399999916553497,0.0024999999441206455,-0.0016999999061226845
1702338772138552600,98.15455249023438,-0.03500000014901161,0.012199999764561653,0.007799999788403511
1702338772237816600,98.25381665039062,-0.04490000009536743,0.0026000000070780516,-0.011799999512732029
1702338772337079000,98.3530791015625,-0.025200000032782555,0.002699999837204814,-0.011899999342858791
1702338772436343000,98.45234301757813,-0.015399999916553497,0.011699999682605267,-0.002199999988079071
1702338772535605500,98.55160546875,-0.025200000032782555,-0.007999999448657036,0.007199999876320362
1702338772634869800,98.65086987304687,-0.03500000014901161,0.0013000000035390258,0.006799999624490738
1702338772734132200,98.75013232421875,-0.05460000038146973,0.00139999995008111,0.0064999996684491634
1702338772833396200,98.84939624023437,-0.04479999840259552,0.001500000013038516,0.006799999624490738
1702338772932658700,98.94865869140625,-0.03500000014901161,-0.008200000040233135,-0.0031999999191612005
1702338773031922700,99.04792260742188,-0.03500000014901161,-0.008100000210106373,-0.0030999998562037945
1702338773131185400,99.14718530273437,-0.03500000014901161,-0.007699999958276749,0.006000000052154064
1702338773230449400,99.24644946289062,-0.025200000032782555,0.002199999988079071,0.006300000008195639
1702338773329710300,99.34571044921876,-0.04479999840259552,0.011799999512732029,-0.0030999998562037945
1702338773428974300,99.44497436523437,-0.015399999916553497,0.011500000022351742,-0.002899999963119626
1702338773528238300,99.54423828125,-0.03500000014901161,-0.008100000210106373,-0.012299999594688416
1702338773627500800,99.64350073242187,-0.03500000014901161,-0.007899999618530273,0.0064999996684491634
1702338773726765000,99.74276513671875,-0.025200000032782555,-0.018299998715519905,-0.0031999999191612005
1702338773826027500,99.84202758789063,-0.025200000032782555,0.010599999688565731,0.006599999964237213
1702338773925290000,99.9412900390625,-0.03500000014901161,0.010799999348819256,-0.0032999999821186066
1702338774024554000,100.04055395507812,-0.04479999840259552,-0.008100000210106373,-0.002699999837204814
1702338774123818000,100.13981787109375,-0.025200000032782555,0.0017999999690800905,0.006899999920278788
1702338774223080700,100.23908081054688,-0.04479999840259552,0.0018999999156221747,-0.0026000000070780516
1702338774322343200,100.33834326171875,-0.025200000032782555,0.010900000110268593,0.006799999624490738
1702338774421607200,100.43760717773438,-0.025200000032782555,0.010599999688565731,-0.0018999999156221747
1702338774520869600,100.53686962890625,-0.04479999840259552,0.00029999998514540493,0.007699999958276749
1702338774620133600,100.63613354492188,-0.025200000032782555,-0.018799999728798866,-0.0015999999595806003
1702338774719396400,100.73539624023438,-0.03500000014901161,0.010400000028312206,0.008100000210106373
1702338774818658800,100.83465893554687,-0.03500000014901161,0.010599999688565731,-0.001999999862164259
1702338774917922800,100.9339228515625,-0.04479999840259552,-0.008799999952316284,-0.011599999852478504
1702338775017185300,101.03318530273438,-0.025200000032782555,-0.01809999905526638,-0.00139999995008111
1702338775116449300,101.13244921875,-0.03500000014901161,0.00139999995008111,-0.01119999960064888
1702338775215711700,101.23171166992188,-0.03500000014901161,0.0010999999940395355,-0.0015999999595806003
1702338775314976000,101.33097607421875,-0.015399999916553497,0.028099998831748962,0.018400000408291817
1702338775414238500,101.43023852539062,0.09239999949932098,-0.01119999960064888,-0.029199998825788498
1702338775513502500,101.52950244140625,-0.03500000014901161,-0.010799999348819256,0.009099999442696571
1702338775612765000,101.62876489257812,-0.04479999840259552,-0.010499999858438969,0.01860000006854534
1702338775712029000,101.72802880859375,-0.015399999916553497,-0.0007999999797903001,-0.0007999999797903001
1702338775811291600,101.82729174804687,-0.03500000014901161,-0.0004999999655410647,-0.010400000028312206
1702338775910554000,101.92655419921876,-0.00559999980032444,-0.00019999999494757503,-0.019999999552965164
1702338776009818000,102.02581811523437,-0.00559999980032444,-0.00029999998514540493,-0.0009999999310821295
1702338776109080600,102.12508056640625,-0.025200000032782555,-0.028999999165534973,0.017999999225139618
1702338776208344600,102.22434448242187,-0.025200000032782555,-0.009499999694526196,-0.0017999999690800905
1702338776307607000,102.32360693359375,-0.025200000032782555,0.00009999999747378752,-0.0015999999595806003
1702338776406871300,102.42287133789063,-0.015399999916553497,-0.00930000003427267,0.017500000074505806
1702338776506133800,102.5221337890625,-0.015399999916553497,-0.008700000122189522,0.008299999870359898
1702338776605397800,102.62139770507812,-0.03500000014901161,-0.008700000122189522,-0.011399999260902405
1702338776704660200,102.72066015625,-0.03500000014901161,-0.017999999225139618,0.0072999997064471245
1702338776803924500,102.81992456054688,-0.04479999840259552,-0.007999999448657036,0.0066999997943639755
1702338776903187000,102.91918701171875,-0.025200000032782555,-0.007999999448657036,-0.0026000000070780516
1702338777002451000,103.01845092773438,-0.03500000014901161,0.0008999999845400453,-0.0026000000070780516
1702338777101713400,103.11771337890625,-0.025200000032782555,-0.007699999958276749,-0.002699999837204814
1702338777200977400,103.21697729492188,-0.05460000038146973,0.0015999999595806003,0.0072999997064471245
1702338777300240000,103.31623999023438,-0.025200000032782555,0.0024999999441206455,0.006199999712407589
1702338777399502600,103.41550268554687,-0.04479999840259552,0.0026000000070780516,-0.0037999998312443495
1702338777498766600,103.5147666015625,-0.025200000032782555,-0.006300000008195639,0.0050999997183680534
1702338777598029000,103.61402905273438,-0.04479999840259552,-0.006899999920278788,0.004799999762326479
1702338777697293000,103.71329296875,-0.04479999840259552,-0.0066999997943639755,-0.004999999888241291
1702338777796555500,103.81255541992188,-0.015399999916553497,0.0024999999441206455,-0.0058999997563660145
1702338777895819800,103.91181982421875,-0.015399999916553497,0.011599999852478504,-0.015199999324977398
1702338777995082200,104.01108227539062,-0.03500000014901161,0.002300000051036477,0.013799999840557575
1702338778094346200,104.11034619140625,-0.03500000014901161,-0.00699999975040555,-0.006000000052154064
1702338778193608700,104.20960864257812,-0.03500000014901161,0.002899999963119626,0.0038999998942017555
1702338778292872700,104.30887280273437,-0.03500000014901161,-0.006399999838322401,0.0038999998942017555
1702338778392135200,104.40813525390625,-0.025200000032782555,0.0030999998562037945,-0.00559999980032444
1702338778491398000,104.50739794921876,-0.03500000014901161,0.002899999963119626,-0.004900000058114529
1702338778590662000,104.60666186523437,-0.03500000014901161,0.0023999998811632395,-0.004399999976158142
1702338778689924400,104.70592431640625,-0.03500000014901161,-0.016599999740719795,0.0050999997183680534
1702338778789188400,104.80518823242187,-0.04479999840259552,0.0030999998562037945,-0.0139999995008111
1702338778888450800,104.90445092773437,-0.025200000032782555,-0.0064999996684491634,-0.004100000020116568
1702338778987715000,105.00371508789063,-0.03500000014901161,-0.006599999964237213,0.005499999970197678
1702338779086977500,105.1029775390625,-0.015399999916553497,-0.0064999996684491634,0.00559999980032444
1702338779186241500,105.20224145507812,-0.04479999840259552,0.0031999999191612005,0.005499999970197678
1702338779285504000,105.30150390625,-0.025200000032782555,0.0031999999191612005,-0.004600000102072954
1702338779384768000,105.40076806640624,-0.025200000032782555,0.00279999990016222,-0.004299999680370092
1702338779484030700,105.50003076171875,-0.025200000032782555,0.0031999999191612005,-0.013899999670684338
1702338779583294700,105.59929467773438,-0.03500000014901161,0.012899999506771564,-0.004699999932199717
1702338779682557200,105.69855712890624,-0.03500000014901161,-0.006300000008195639,-0.004299999680370092
1702338779781819600,105.79781958007813,-0.025200000032782555,0.002899999963119626,-0.004799999762326479
1702338779881083600,105.89708374023438,-0.03500000014901161,0.00279999990016222,-0.0052999998442828655
1702338779980346000,105.99634619140625,-0.03500000014901161,0.002699999837204814,-0.014800000004470348
1702338780079610400,106.0956103515625,-0.015399999916553497,0.021900000050663948,-0.014999999664723873
1702338780178872800,106.19487280273438,-0.03500000014901161,0.01249999925494194,-0.01529999915510416
1702338780278136800,106.29413671875,-0.025200000032782555,-0.0071000000461936,-0.01489999983459711
1702338780377399300,106.3933994140625,-0.03500000014901161,0.012600000016391277,-0.005699999630451202
1702338780476663300,106.49266333007813,-0.025200000032782555,0.0026000000070780516,0.004299999680370092
1702338780575926000,106.59192602539062,-0.03500000014901161,-0.007899999618530273,0.003499999875202775
1702338780675190000,106.69118994140625,-0.03500000014901161,0.011500000022351742,-0.00559999980032444
1702338780774452500,106.79045239257813,-0.01529999915510416,0.00139999995008111,-0.015199999324977398
1702338780873716500,106.88971655273437,-0.0348999984562397,0.000699999975040555,0.014099999330937862
1702338780972979000,106.98897900390625,-0.025200000032782555,-0.008200000040233135,0.004900000058114529
1702338781072241700,107.08824169921876,-0.03500000014901161,0.002099999925121665,-0.00419999985024333
1702338781171505700,107.18750561523437,-0.025200000032782555,0.0015999999595806003,-0.004100000020116568
1702338781270768000,107.28676806640625,-0.015399999916553497,-0.008299999870359898,-0.004399999976158142
1702338781370032000,107.3860322265625,-0.025200000032782555,0.0013000000035390258,-0.00419999985024333
1702338781469294600,107.48529467773437,-0.025200000032782555,0.00139999995008111,-0.004999999888241291
1702338781568558800,107.58455883789063,-0.025200000032782555,0.001999999862164259,-0.004999999888241291
1702338781667821300,107.6838212890625,-0.025200000032782555,0.0017999999690800905,0.0038999998942017555
1702338781767085300,107.78308520507812,-0.025200000032782555,0.002099999925121665,-0.005499999970197678
1702338781866347800,107.88234765625,-0.025100000202655792,-0.007400000002235174,0.01269999984651804
1702338781965611800,107.98161181640624,-0.025200000032782555,-0.00699999975040555,-0.015599999576807022
1702338782064874200,108.08087426757812,-0.03500000014901161,0.0030999998562037945,0.003700000001117587
1702338782164137000,108.18013696289063,-0.025200000032782555,0.003000000026077032,0.002899999963119626
1702338782263399400,108.2793994140625,-0.015399999916553497,-0.025699999183416367,0.0026000000070780516
1702338782362663400,108.37866333007813,-0.025200000032782555,0.003399999812245369,-0.00699999975040555
1702338782461926000,108.47792578125,-0.025200000032782555,0.003000000026077032,-0.006300000008195639
1702338782561190000,108.57718994140625,-0.03500000014901161,0.012399999424815178,0.0037999998312443495
1702338782660452400,108.67645239257813,-0.025200000032782555,0.0024999999441206455,-0.0058999997563660145
1702338782759716600,108.77571655273438,-0.03500000014901161,0.002300000051036477,-0.014800000004470348
1702338782858980600,108.87498071289062,-0.025200000032782555,0.0018999999156221747,0.0139999995008111
1702338782958243000,108.9742431640625,-0.03500000014901161,0.011399999260902405,0.0037999998312443495
1702338783057505500,109.07350561523438,-0.01529999915510416,0.011399999260902405,-0.0064999996684491634
1702338783156769800,109.17276977539062,-0.0348999984562397,-0.007799999788403511,0.002699999837204814
1702338783256033800,109.27203369140625,-0.0348999984562397,0.010900000110268593,0.002899999963119626
1702338783355296300,109.37129614257813,-0.0348999984562397,0.0008999999845400453,0.002699999837204814
1702338783454558700,109.47055883789062,-0.025100000202655792,-0.008799999952316284,0.0023999998811632395
1702338783553821200,109.5698212890625,-0.025100000202655792,0.0013000000035390258,-0.006899999920278788
1702338783653085200,109.66908520507812,-0.025100000202655792,0.0009999999310821295,-0.01640000008046627
1702338783752348000,109.76834790039062,-0.025100000202655792,0.010300000198185444,0.012999999336898327
1702338783851612000,109.86761181640625,-0.0348999984562397,0.0004999999655410647,-0.006000000052154064
1702338783950874400,109.96687426757812,-0.025100000202655792,-0.008999999612569809,-0.00559999980032444
1702338784050138400,110.06613842773437,-0.0348999984562397,0.0005999999702908099,0.004100000020116568
1702338784149400800,110.16540087890625,-0.0348999984562397,-0.008799999952316284,0.003999999724328518
1702338784248665000,110.2646650390625,-0.025100000202655792,0.0011999999405816197,0.0038999998942017555
1702338784347927600,110.36392749023437,-0.025100000202655792,0.010900000110268593,-0.0058999997563660145
1702338784447191600,110.46319165039063,-0.025100000202655792,0.011099999770522118,0.013100000098347664
1702338784546454000,110.5624541015625,-0.0348999984562397,0.0011999999405816197,0.012899999506771564
1702338784645718000,110.66171801757812,-0.04470000043511391,-0.018299998715519905,-0.006399999838322401
1702338784744980500,110.76098046875,-0.025100000202655792,-0.008100000210106373,0.013299999758601189
1702338784844244700,110.86024462890624,-0.025100000202655792,0.011099999770522118,0.002699999837204814
1702338784943507200,110.95950708007813,-0.04470000043511391,0.0010999999940395355,-0.0072999997064471245
1702338785042771200,111.05877124023438,-0.04470000043511391,0.0010999999940395355,0.0031999999191612005
1702338785142033700,111.15803369140625,-0.0348999984562397,-0.009200000204145908,0.003700000001117587
1702338785241296100,111.25729614257813,-0.025100000202655792,0.00029999998514540493,0.003499999875202775
1702338785340560400,111.35656030273438,-0.0348999984562397,0.00969999935477972,0.003499999875202775
1702338785439822800,111.45582275390625,-0.025100000202655792,0.00009999999747378752,0.0030999998562037945
1702338785539086800,111.5550869140625,-0.04470000043511391,0.00989999994635582,-0.006599999964237213
1702338785638349300,111.65434936523438,-0.0348999984562397,0,-0.006399999838322401
1702338785737613300,111.75361328125,-0.0348999984562397,-0.010099999606609344,0.003499999875202775
1702338785836876000,111.8528759765625,-0.0348999984562397,0.00009999999747378752,-0.00559999980032444
1702338785936140000,111.95214013671875,-0.04470000043511391,0.00019999999494757503,-0.005799999926239252
1702338786035402500,112.05140258789062,-0.025100000202655792,0,-0.01549999974668026
1702338786134665000,112.1506650390625,-0.025100000202655792,-0.019299998879432678,-0.005699999630451202
1702338786233929000,112.24992895507812,-0.025100000202655792,0.0005999999702908099,0.004299999680370092
1702338786333191400,112.34919140625,-0.04479999840259552,-0.00930000003427267,-0.004900000058114529
1702338786432455700,112.44845556640625,-0.03500000014901161,-0.009200000204145908,-0.004399999976158142
1702338786531718100,112.54771826171876,-0.025200000032782555,0.00039999998989515007,-0.013799999840557575
1702338786630982100,112.64698217773437,-0.03500000014901161,0.00019999999494757503,-0.003999999724328518
1702338786730244600,112.74624462890625,-0.03500000014901161,-0.009599999524652958,-0.0142000000923872
1702338786829508600,112.84550854492187,-0.04470000043511391,-0.00019999999494757503,0.014800000004470348
1702338786928771300,112.94477124023437,-0.01529999915510416,0.0004999999655410647,-0.004600000102072954
1702338787028035300,113.04403540039063,-0.025200000032782555,-0.008599999360740185,-0.004699999932199717
1702338787127297800,113.1432978515625,-0.03500000014901161,0.010799999348819256,0.004699999932199717
1702338787226560300,113.24256030273438,-0.025100000202655792,0.010400000028312206,-0.005499999970197678
1702338787325824300,113.34182421875,-0.0348999984562397,0.0007999999797903001,-0.015099999494850636
1702338787425088500,113.44108862304688,-0.0348999984562397,0.010499999858438969,0.0139999995008111
1702338787524351000,113.54035107421875,-0.0348999984562397,-0.00009999999747378752,0.003700000001117587
1702338787623613400,113.63961352539063,-0.0348999984562397,-0.010099999606609344,-0.006300000008195639
1702338787722877400,113.73887744140625,-0.025100000202655792,0.019299998879432678,0.0030999998562037945
1702338787822140000,113.83813989257813,-0.01529999915510416,0.009499999694526196,0.003599999938160181
1702338787921404200,113.93740405273438,-0.0348999984562397,0.009499999694526196,0.004799999762326479
1702338788020666600,114.03666650390625,-0.025100000202655792,-0.00039999998989515007,0.014499999582767487
1702338788119930600,114.1359306640625,-0.025100000202655792,-0.00009999999747378752,0.0044999998062849045
1702338788219193000,114.23519311523438,-0.04479999840259552,-0.00969999935477972,-0.004600000102072954
1702338788318457000,114.33445703125,-0.0348999984562397,-0.00019999999494757503,0.014299999922513962
1702338788417719600,114.43371948242188,-0.04470000043511391,0.009399999864399433,0.004799999762326479
1702338788516983800,114.53298388671875,-0.04470000043511391,0.00009999999747378752,0.00419999985024333
1702338788616246300,114.63224633789062,-0.0348999984562397,0.00029999998514540493,-0.0052999998442828655
1702338788715510300,114.73151025390625,-0.025200000032782555,-0.008899999782443047,-0.014499999582767487
1702338788814772700,114.83077270507812,-0.03500000014901161,0.0009999999310821295,0.004999999888241291
1702338788914035200,114.93003515625,-0.025200000032782555,0.0004999999655410647,-0.013700000010430813
1702338789013299500,115.02929956054687,-0.025200000032782555,-0.009200000204145908,-0.004100000020116568
1702338789112562000,115.12856201171876,-0.025200000032782555,0.010799999348819256,-0.0038999998942017555
1702338789211826000,115.22782592773437,-0.025200000032782555,-0.008200000040233135,0.006199999712407589
1702338789311088400,115.32708837890625,-0.025200000032782555,0.0016999999061226845,0.006000000052154064
1702338789410352400,115.42635229492187,-0.03500000014901161,-0.008200000040233135,-0.0037999998312443495
1702338789509615000,115.52561499023437,-0.03500000014901161,0.0010999999940395355,0.00559999980032444
1702338789608879000,115.62487915039063,-0.025200000032782555,0.0009999999310821295,-0.0037999998312443495
1702338789708141600,115.7241416015625,-0.01529999915510416,0.009399999864399433,0.005799999926239252
1702338789807404000,115.82340405273438,-0.0348999984562397,-0.019500000402331352,0.0050999997183680534
1702338789906668000,115.92266796875,-0.0348999984562397,0,-0.0139999995008111
1702338790005930500,116.02193041992187,-0.025200000032782555,-0.009499999694526196,-0.003599999938160181
1702338790105193200,116.12119311523438,-0.03500000014901161,0.00989999994635582,-0.00419999985024333
1702338790204457200,116.22045727539063,-0.025200000032782555,0.00019999999494757503,-0.0038999998942017555
1702338790303719700,116.3197197265625,-0.015399999916553497,-0.009099999442696571,-0.003999999724328518
1702338790402983700,116.41898364257813,-0.04479999840259552,-0.008999999612569809,0.0052999998442828655
1702338790502247700,116.51824755859376,-0.03500000014901161,0.010599999688565731,-0.014099999330937862
1702338790601510400,116.61751049804687,-0.04479999840259552,0.00139999995008111,0.005499999970197678
