time,seconds_elapsed,z,y,x
1702338674107056600,0.123056640625,-0.33941417932510376,1.693981647491455,-1.2374035120010376
1702338674206320600,0.222320556640625,-0.19666369259357452,-1.8162943124771118,1.3184391260147095
1702338674305583000,0.3215830078125,0.05134758725762367,-0.47246062755584717,0.13226105272769928
1702338674404847000,0.42084716796875,0.011658798903226852,-0.5303531885147095,0.6246533393859863
1702338674504109800,0.52010986328125,-0.1474628746509552,-0.11184069514274597,0.20174260437488556
1702338674603373800,0.619373779296875,-0.3582986295223236,-1.3100615739822388,0.6620208621025085
1702338674702636300,0.71863623046875,0.2079734355211258,-0.9004153609275818,0.09779080003499985
1702338674801898800,0.817898681640625,0.42186352610588074,-0.35128241777420044,0.12957324087619781
1702338674901162800,0.917162841796875,0.1146506816148758,0.4545011818408966,-0.01802925020456314
1702338675000425500,1.016425537109375,0.43127086758613586,-0.2652900516986847,0.8843408823013306
1702338675099689500,1.115689453125,0.3589269518852234,0.751660943031311,-0.1687733381986618
1702338675198952000,1.214951904296875,1.2841957807540894,1.5057653188705444,0.2364397495985031
1702338675298216000,1.3142158203125,1.0632370710372925,1.1517776250839233,0.15042993426322937
1702338675397478400,1.413478515625,1.4768452644348145,0.6087533831596375,-0.13922491669654846
1702338675496742700,1.51274267578125,1.3665578365325928,0.8131139874458313,-0.3209311366081238
1702338675596005000,1.612005126953125,1.600117802619934,1.8900519609451294,-1.822298288345337
1702338675695269000,1.71126904296875,0.5768487453460693,0.3510904312133789,-1.3189802169799805
1702338675794531600,1.810531494140625,0.7378903031349182,0.2638414204120636,-0.27958428859710693
1702338675893795600,1.909795654296875,0.2260724902153015,-2.774881601333618,-0.061453044414520264
1702338675993058000,2.00905810546875,0.6579018831253052,-0.4014780819416046,-0.4466821253299713
1702338676092322300,2.108322265625,-0.06583382189273834,-2.139232635498047,-0.1448448747396469
1702338676191584800,2.207584716796875,-0.03497639670968056,0.9394758343696594,0.04714134335517883
1702338676290847200,2.30684716796875,0.5674239993095398,1.7558012008666992,0.15044738352298737
1702338676390111200,2.406111328125,0.9816953539848328,2.6909661293029785,0.1045626774430275
1702338676489373700,2.505373779296875,-0.13814280927181244,0.2685014605522156,0.009634217247366905
1702338676588638000,2.604637939453125,0.9208357334136963,0.12636183202266693,0.04445353522896767
1702338676687900400,2.703900390625,-0.00010471975838299841,-0.09827949106693268,-0.047455500811338425
1702338676787164400,2.803164306640625,0.0005235987482592463,0.0032114058267325163,-0.006702064536511898
1702338676886427000,2.902427001953125,-0.0008901178953237832,0.0022689281031489372,0.001117010717280209
1702338676985691000,3.00169091796875,0.00017453292093705386,0.0014486232539638877,0.0005235987482592463
1702338677084951800,3.100951904296875,-0.00027925267932005227,-0.00024434609804302454,-0.00027925267932005227
1702338677184217600,3.200217529296875,0.0005410520825535059,-0.0007679448463022709,-0.00006981316983001307
1702338677283480000,3.29947998046875,-0.00094247778179124,0.00045378561480902135,0.0003490658418741077
1702338677382744000,3.398744140625,0.00043633230961859226,0.00047123889089562,0
1702338677482006500,3.498006591796875,0.0005235987482592463,-0.00012217304902151227,-0.001343903481028974
1702338677581269000,3.59726904296875,0.0012217304902151227,0.00010471975838299841,-0.0006806784076616168
1702338677680531700,3.69653173828125,0.00041887903353199363,0.0005235987482592463,0.00008726646046852693
1702338677779795700,3.795795654296875,0.00015707963029854,0.0005061454721726477,-0.00015707963029854
1702338677879059700,3.895059814453125,-0.0006981316837482154,0.00047123889089562,0.00019198621157556772
1702338677978322200,3.994322265625,-0.00020943951676599681,0.0017976891249418259,0.00047123889089562
1702338678077586200,4.093586181640625,-0.00027925267932005227,0.0003316125657875091,-0.00047123889089562
1702338678176849000,4.192848876953125,0.00045378561480902135,0.00019198621157556772,0.00012217304902151227
1702338678276111400,4.292111328125,-0.0005759586347267032,0.0011519172694534063,0.00022689280740451068
1702338678375375400,4.391375244140625,0.0008726646192371845,0.0008552113431505859,0.0009250245057046413
1702338678474639400,4.490639404296875,-0.00024434609804302454,0.00003490658491500653,-0.00006981316983001307
1702338678573901800,4.58990185546875,0.00188495556358248,0.00027925267932005227,-0.001029744278639555
1702338678673164500,4.68916455078125,0,0.0013264502631500363,0.00062831852119416
1702338678772427000,4.788427001953125,-0.000052359879191499203,0.001972222002223134,0.00003490658491500653
1702338678871691000,4.88769091796875,0.0008901178953237832,0.0006632251315750182,-0.00017453292093705386
1702338678970955000,4.986955078125,0.0008901178953237832,0.000017453292457503267,0
1702338679070217500,5.086217529296875,0.00017453292093705386,0.0009773843921720982,-0.0005235987482592463
1702338679169480000,5.18547998046875,0.0009773843921720982,-0.00020943951676599681,-0.0007853981805965304
1702338679268744200,5.284744140625,0.0003316125657875091,0.0009250245057046413,0.0006457717972807586
1702338679368006700,5.384006591796875,0.00094247778179124,0.0010821041651070118,-0.00047123889089562
1702338679467270700,5.483270751953125,0.00013962633966002613,0.0006108652451075613,0.00041887903353199363
1702338679566533000,5.582533203125,-0.00029670598451048136,0.0015009831404313445,-0.0005235987482592463
1702338679665795600,5.681795654296875,0.00041887903353199363,0.0010646508308127522,0.00013962633966002613
1702338679765059800,5.781059814453125,0.0011519172694534063,0.0008901178953237832,0.00008726646046852693
1702338679864322300,5.880322265625,0.00017453292093705386,0,-0.0008203047327697277
1702338679963586300,5.97958642578125,0.0006806784076616168,-0.0010471974965184927,-0.00013962633966002613
1702338680062848800,6.078848876953125,0.0003490658418741077,-0.0008552113431505859,-0.0006806784076616168
1702338680162112800,6.17811279296875,0.001343903481028974,0.0006981316837482154,0.00038397242315113544
1702338680261375200,6.277375244140625,-0.00012217304902151227,-0.000017453292457503267,-0.00027925267932005227
1702338680360639500,6.376639404296875,-0.00043633230961859226,-0.00013962633966002613,0.00008726646046852693
1702338680459902000,6.47590185546875,-0.0005061454721726477,0.0005585053586401045,-0.000017453292457503267
1702338680559166000,6.575166015625,-0.000715585018042475,-0.0008901178953237832,-0.000017453292457503267
1702338680658428400,6.674428466796875,0.0003665191470645368,-0.0006632251315750182,-0.0006981316837482154
1702338680757692400,6.7736923828125,-0.00019198621157556772,0.0008028514566831291,0.0003490658418741077
1702338680856955100,6.872955078125,-0.00041887903353199363,0.0008552113431505859,-0.0007853981805965304
1702338680956219100,6.97221923828125,0.00020943951676599681,-0.00043633230961859226,-0.0005410520825535059
1702338681055481600,7.071481689453125,-0.00043633230961859226,-0.00013962633966002613,0.0003316125657875091
1702338681154744000,7.170744140625,-0.0003490658418741077,0.00027925267932005227,-0.00017453292093705386
1702338681254008000,7.270008056640625,-0.0005585053586401045,-0.0012740903766825795,-0.00003490658491500653
1702338681353270800,7.369270751953125,-0.0009075712296180427,0.0007504915702156723,-0.00029670598451048136
1702338681452534800,7.46853466796875,-0.00038397242315113544,0.00017453292093705386,0.0005934119690209627
1702338681551797200,7.56779736328125,-0.00043633230961859226,0.0003316125657875091,-0.0010821041651070118
1702338681651061200,7.667061279296875,-0.0010821041651070118,-0.00008726646046852693,0
1702338681750323700,7.76632373046875,-0.000052359879191499203,-0.00041887903353199363,-0.000017453292457503267
1702338681849588000,7.865587890625,0.0006108652451075613,-0.00024434609804302454,-0.00015707963029854
1702338681948850400,7.964850341796875,-0.00027925267932005227,0.0003316125657875091,0.0005934119690209627
1702338682048114400,8.064114501953124,-0.0011344640515744686,-0.00045378561480902135,-0.0008377580670639873
1702338682147377000,8.163376953125,0.00027925267932005227,0.0009948377264663577,-0.00017453292093705386
1702338682246641000,8.262640869140625,-0.000052359879191499203,0.00062831852119416,-0.0008726646192371845
1702338682345903400,8.3619033203125,0.0008377580670639873,-0.0003316125657875091,-0.0008552113431505859
1702338682445166000,8.461166015625,-0.0003316125657875091,-0.00062831852119416,0.0006981316837482154
1702338682544430000,8.56043017578125,0,0.00020943951676599681,-0.00019198621157556772
1702338682643692500,8.659692626953126,-0.00012217304902151227,-0.0002617993741296232,-0.0004886921960860491
1702338682742956500,8.75895654296875,0.0012915435945615172,-0.0002617993741296232,-0.0003665191470645368
1702338682842219000,8.858218994140625,0.00038397242315113544,0.00010471975838299841,0.0005934119690209627
1702338682941483300,8.957483154296876,0.0005410520825535059,-0.0003316125657875091,0.00006981316983001307
1702338683040745700,9.056745849609374,0.00020943951676599681,-0.00047123889089562,0.0008726646192371845
1702338683140009700,9.156009765625,-0.00012217304902151227,-0.00020943951676599681,0.00031415926059708
1702338683239272200,9.255272216796875,-0.0010122909443452954,0.00010471975838299841,0.00024434609804302454
1702338683338536200,9.3545361328125,0,-0.00040142572834156454,-0.0009599310578778386
1702338683437799000,9.453798828125,-0.0008901178953237832,0.000017453292457503267,0.0009948377264663577
1702338683537061400,9.553061279296875,0.00010471975838299841,0.00012217304902151227,-0.00043633230961859226
1702338683636325400,9.652325439453126,0.0003490658418741077,-0.00040142572834156454,-0.0003490658418741077
1702338683735587800,9.751587890625,-0.00024434609804302454,-0.0011519172694534063,-0.0011868239380419254
1702338683834850300,9.850850341796875,0.0006108652451075613,0.000052359879191499203,-0.00012217304902151227
1702338683934114300,9.9501142578125,-0.0003665191470645368,-0.00043633230961859226,-0.00017453292093705386
1702338684033378600,10.049378662109374,0.000052359879191499203,-0.0008377580670639873,0.000017453292457503267
1702338684132641000,10.14864111328125,-0.0009773843921720982,0.0003665191470645368,-0.00024434609804302454
1702338684231905000,10.247905029296875,0.00029670598451048136,0.0008552113431505859,0.0005235987482592463
1702338684331167500,10.34716748046875,-0.0016755161341279745,0.0006632251315750182,-0.00003490658491500653
1702338684430431500,10.446431396484375,-0.0006632251315750182,0.0004886921960860491,-0.0003490658418741077
1702338684529694200,10.545694091796875,0.00015707963029854,-0.00043633230961859226,-0.0005759586347267032
1702338684628958200,10.644958251953126,0.00017453292093705386,0.0013788101496174932,-0.0006981316837482154
1702338684728220700,10.744220703125,-0.00012217304902151227,-0.00047123889089562,0.00013962633966002613
1702338684827483100,10.843483154296875,-0.0006108652451075613,-0.00024434609804302454,-0.00013962633966002613
1702338684926745600,10.94274560546875,0.00043633230961859226,-0.00045378561480902135,0.00027925267932005227
1702338685026009900,11.042009765625,0.0014137167017906904,-0.0006806784076616168,-0.0005235987482592463
1702338685125273900,11.14127392578125,-0.0003316125657875091,0.00027925267932005227,-0.00017453292093705386
1702338685224536300,11.240536376953125,0.0008377580670639873,-0.0013962633674964309,-0.0003316125657875091
1702338685323800300,11.33980029296875,-0.0010122909443452954,0.00019198621157556772,-0.00003490658491500653
1702338685423062800,11.439062744140625,-0.00041887903353199363,-0.0003665191470645368,-0.00045378561480902135
1702338685522327000,11.5383271484375,0.0002617993741296232,0.00031415926059708,0.0005585053586401045
1702338685621589500,11.637589599609376,-0.0006981316837482154,-0.0006108652451075613,0.0003316125657875091
1702338685720853500,11.736853515625,-0.0005061454721726477,-0.00024434609804302454,-0.00003490658491500653
1702338685820116000,11.836115966796875,-0.0009599310578778386,-0.000052359879191499203,-0.0014660765882581472
1702338685919378400,11.93537841796875,-0.001518436474725604,0.0010995573829859495,-0.0005759586347267032
1702338686018642400,12.034642333984374,0.0003665191470645368,0.0010995573829859495,-0.00019198621157556772
1702338686117905200,12.1339052734375,-0.0007330382941290736,0.00019198621157556772,0.0003490658418741077
1702338686217167600,12.233167724609375,0.001972222002223134,0.00006981316983001307,-0.00041887903353199363
1702338686316431600,12.332431640625,0.0008552113431505859,-0.0008377580670639873,-0.0008552113431505859
1702338686415694000,12.431694091796874,0.00017453292093705386,0.0011519172694534063,-0.0007853981805965304
1702338686514958000,12.5309580078125,-0.00094247778179124,0.000017453292457503267,0.0005759586347267032
1702338686614220500,12.630220458984375,-0.00017453292093705386,0.0008203047327697277,0.00047123889089562
1702338686713484800,12.72948486328125,0.0005410520825535059,-0.0010122909443452954,-0.0005759586347267032
1702338686812747300,12.828747314453125,0.00012217304902151227,0.00040142572834156454,0.00019198621157556772
1702338686912011300,12.92801123046875,0.0003316125657875091,0.00019198621157556772,0.00027925267932005227
1702338687011275300,13.027275146484374,-0.00031415926059708,-0.00041887903353199363,-0.00031415926059708
1702338687110537700,13.126537841796875,-0.00003490658491500653,0.00043633230961859226,-0.00029670598451048136
1702338687209802000,13.225802001953125,-0.0007679448463022709,0.0005934119690209627,0.0010821041651070118
1702338687309064400,13.325064453125,-0.00031415926059708,0.0008377580670639873,-0.0008901178953237832
1702338687408328400,13.424328369140625,-0.0002617993741296232,-0.00020943951676599681,0.00027925267932005227
1702338687507591000,13.5235908203125,-0.00012217304902151227,0.0008726646192371845,0.0003665191470645368
1702338687606853400,13.622853271484376,-0.00062831852119416,0.0007504915702156723,0.0010471974965184927
1702338687706117600,13.72211767578125,-0.00012217304902151227,0.0010471974965184927,0.00024434609804302454
1702338687805380000,13.821380126953125,-0.000715585018042475,0.00008726646046852693,0.00008726646046852693
1702338687904642600,13.920642578125,-0.0014486232539638877,-0.0005410520825535059,0.00003490658491500653
1702338688003906600,14.019906494140624,0.00015707963029854,-0.00012217304902151227,0.0003665191470645368
1702338688103170600,14.119170654296875,-0.0011519172694534063,-0.0008552113431505859,-0.0014660765882581472
1702338688202433300,14.218433349609375,-0.00040142572834156454,0.001343903481028974,-0.00003490658491500653
1702338688301695700,14.31769580078125,0.0005759586347267032,0.00045378561480902135,-0.0005759586347267032
1702338688400958200,14.416958251953124,-0.0014486232539638877,0.0003490658418741077,-0.00008726646046852693
1702338688500222200,14.51622216796875,-0.00008726646046852693,-0.00040142572834156454,0.00027925267932005227
1702338688599484700,14.615484619140625,-0.0015358896926045418,0.0005410520825535059,0
1702338688698748700,14.714748779296874,0.002024581888690591,-0.0005235987482592463,0.0005759586347267032
1702338688798011400,14.814011474609375,-0.0007679448463022709,-0.0005934119690209627,0.0005585053586401045
1702338688897275400,14.913275390625,-0.00003490658491500653,0.00012217304902151227,0.00040142572834156454
1702338688996537900,15.012537841796876,0.00012217304902151227,0.00022689280740451068,0.00045378561480902135
1702338689095801900,15.1118017578125,-0.0008726646192371845,-0.00043633230961859226,0
1702338689195064300,15.211064208984375,-0.0014137167017906904,-0.00024434609804302454,-0.00006981316983001307
1702338689294328600,15.31032861328125,0.0003490658418741077,0.00043633230961859226,0.0010122909443452954
1702338689393591000,15.409591064453124,-0.0007330382941290736,-0.0003665191470645368,0.00031415926059708
1702338689492853500,15.508853515625,-0.0011693706037476659,-0.00047123889089562,0.00015707963029854
1702338689592117500,15.608117431640625,0.00003490658491500653,0.000052359879191499203,-0.0011519172694534063
1702338689691381500,15.707381591796874,0.000052359879191499203,0.00008726646046852693,-0.0003316125657875091
1702338689790644200,15.806644287109375,-0.00019198621157556772,-0.000017453292457503267,0.0006981316837482154
1702338689889908200,15.905908203125,-0.0004886921960860491,0.001117010717280209,0.0008028514566831291
1702338689989170700,16.005170654296876,0.0004886921960860491,0.00015707963029854,-0.00013962633966002613
1702338690088434700,16.1044345703125,0.00043633230961859226,-0.00003490658491500653,0.0015882495790719986
1702338690187697200,16.203697265625,-0.00047123889089562,-0.00029670598451048136,0.0015358896926045418
1702338690286961400,16.30296142578125,-0.0012217304902151227,-0.0008377580670639873,0.00003490658491500653
1702338690386223900,16.402223876953126,-0.00013962633966002613,0.0006632251315750182,0.00006981316983001307
1702338690485486300,16.501486328125,0.0005585053586401045,0,-0.00027925267932005227
1702338690584750300,16.600750244140624,-0.000052359879191499203,-0.0005585053586401045,0.00043633230961859226
1702338690684012800,16.7000126953125,-0.00020943951676599681,0.0003665191470645368,0.00031415926059708
1702338690783276800,16.79927685546875,0.00006981316983001307,0.00031415926059708,-0.00013962633966002613
1702338690882539500,16.89853955078125,0.000052359879191499203,0.00041887903353199363,0.000052359879191499203
1702338690981803500,16.997803466796874,-0.0003316125657875091,0.00013962633966002613,-0.0006981316837482154
1702338691081066000,17.09706591796875,0.0005759586347267032,0.0008726646192371845,0.0004886921960860491
1702338691180328400,17.196328369140623,-0.00019198621157556772,0.0009773843921720982,0.000017453292457503267
1702338691279592400,17.295592529296876,0.0005061454721726477,-0.0003490658418741077,0.00027925267932005227
1702338691378855200,17.394855224609376,-0.00043633230961859226,0.0008552113431505859,-0.00015707963029854
1702338691478119200,17.494119140625,-0.00012217304902151227,-0.0008028514566831291,-0.0008203047327697277
1702338691577381600,17.593381591796874,0.00019198621157556772,-0.00003490658491500653,-0.0006632251315750182
1702338691676645600,17.692645751953126,-0.0005410520825535059,0.0006632251315750182,-0.00029670598451048136
1702338691775908000,17.791908203125,0.0005934119690209627,0.0013613568153232336,0.000017453292457503267
1702338691875172400,17.89117236328125,-0.0003316125657875091,0.0009948377264663577,0.00031415926059708
1702338691974434800,17.990434814453124,-0.000052359879191499203,0.0005410520825535059,-0.00012217304902151227
1702338692073697300,18.089697265625,0.00020943951676599681,0.00013962633966002613,0.00024434609804302454
1702338692172961300,18.188961181640625,-0.00041887903353199363,0.0007853981805965304,-0.0008377580670639873
1702338692272223700,18.2882236328125,0.0007330382941290736,0.0003316125657875091,-0.0010646508308127522
1702338692371486200,18.387486328125,-0.0008028514566831291,0.00010471975838299841,0.0010646508308127522
1702338692470750500,18.48675048828125,0.00027925267932005227,0.0008377580670639873,0.00017453292093705386
1702338692570013000,18.586012939453123,-0.0003665191470645368,-0.00062831852119416,-0.00006981316983001307
1702338692669277000,18.68527685546875,0.0006108652451075613,-0.00003490658491500653,-0.00040142572834156454
1702338692768541000,18.784541015625,-0.00045378561480902135,0.00040142572834156454,0.00003490658491500653
1702338692867803400,18.883803466796873,-0.00008726646046852693,-0.00013962633966002613,-0.00015707963029854
1702338692967065900,18.98306591796875,-0.00024434609804302454,0.0013788101496174932,0.0002617993741296232
1702338693066330000,19.082330078125,-0.0003490658418741077,0.0010646508308127522,-0.00020943951676599681
1702338693165594000,19.181593994140623,0.0005235987482592463,0.0012915435945615172,-0.0009773843921720982
1702338693264856600,19.280856689453124,0.00008726646046852693,0.00038397242315113544,0.0006981316837482154
1702338693364119000,19.380119140625,-0.0008901178953237832,0.0013089969288557768,0.00040142572834156454
1702338693463383000,19.479383056640625,0.00006981316983001307,0.0018500490114092827,0.0006108652451075613
1702338693562645800,19.578645751953125,-0.00038397242315113544,0.0006632251315750182,0.0013264502631500363
1702338693661909800,19.67790966796875,0,0.0008901178953237832,0.00022689280740451068
1702338693761172200,19.777172119140626,0.0005585053586401045,-0.00006981316983001307,0.00022689280740451068
1702338693860436200,19.876436279296875,0.00022689280740451068,0.00013962633966002613,-0.00015707963029854
1702338693959698700,19.97569873046875,-0.0006632251315750182,-0.00017453292093705386,0.00043633230961859226
1702338694058961400,20.07496142578125,-0.0004886921960860491,0.00008726646046852693,0.00040142572834156454
1702338694158225400,20.174225341796873,-0.0010646508308127522,0.0002617993741296232,0.0008028514566831291
1702338694257488000,20.27348779296875,-0.0010821041651070118,0.0012915435945615172,-0.00010471975838299841
1702338694356752000,20.372751953125,-0.00010471975838299841,0.0006981316837482154,0.001343903481028974
1702338694456016000,20.472015869140623,-0.00045378561480902135,-0.0009250245057046413,-0.002373647876083851
1702338694555278600,20.571278564453124,0.00094247778179124,0.0017802357906475663,0.002478367416188121
1702338694654541000,20.670541015625,-0.00041887903353199363,0.0009599310578778386,0.0004886921960860491
1702338694753803500,20.769803466796876,0.0006632251315750182,0.00017453292093705386,0.00040142572834156454
1702338694853067500,20.869067626953125,0.0008377580670639873,0.00010471975838299841,0.00024434609804302454
1702338694952331500,20.96833154296875,-0.0009075712296180427,0.00008726646046852693,-0.00015707963029854
1702338695051594000,21.067593994140626,-0.00040142572834156454,0.00003490658491500653,0.00010471975838299841
1702338695150856700,21.166856689453127,-0.0005235987482592463,0.0017976891249418259,0.001029744278639555
1702338695250122200,21.266122314453124,-0.00017453292093705386,-0.00010471975838299841,-0.001117010717280209
1702338695349383200,21.365383056640624,-0.0013089969288557768,0.0013264502631500363,0.0005235987482592463
1702338695448647200,21.464647216796877,0.00010471975838299841,0.0012915435945615172,0.0005585053586401045
1702338695547909600,21.56390966796875,-0.00017453292093705386,0.0013089969288557768,0.00029670598451048136
1702338695647174000,21.663173828125,0.00062831852119416,-0.00020943951676599681,0.00040142572834156454
1702338695746436400,21.762436279296875,-0.0004886921960860491,-0.00017453292093705386,0.0007504915702156723
1702338695845700400,21.861700439453124,-0.0005934119690209627,0.0007330382941290736,0.0006108652451075613
1702338695944962800,21.960962890625,0.0012042771559208632,0.00031415926059708,-0.00027925267932005227
1702338696044226800,22.060226806640625,-0.00029670598451048136,0.000715585018042475,0.000052359879191499203
1702338696143489500,22.159489501953125,-0.00013962633966002613,0.00038397242315113544,-0.0002617993741296232
1702338696242753500,22.25875341796875,0.0003665191470645368,0.001117010717280209,0.0005934119690209627
1702338696342017500,22.358017578125,0.00012217304902151227,0.00045378561480902135,0.000052359879191499203
1702338696441278500,22.457278564453127,-0.0007679448463022709,0.0012740903766825795,0.00015707963029854
1702338696540542500,22.55654248046875,-0.00012217304902151227,0.00008726646046852693,0.0007504915702156723
1702338696639806700,22.655806640625,-0.0013089969288557768,0.08056439459323883,0.03497639670968056
1702338696739069200,22.755069091796877,0.0041015236638486385,-0.36643186211586,-0.2565808594226837
1702338696838331600,22.85433154296875,-0.005986479111015797,-0.0717155784368515,-0.03525565192103386
1702338696937595600,22.953595703125,-0.001483529806137085,-0.21509437263011932,-0.10803587734699249
1702338697036858000,23.052858154296874,-0.00040142572834156454,-0.11742575466632843,-0.052639130502939224
1702338697136122000,23.1521220703125,-0.0009075712296180427,0.3600090742111206,0.13639748096466064
1702338697235384800,23.251384765625,-0.00125663704238832,0.09176941215991974,0.04789183288812637
1702338697334648800,23.35064892578125,-0.0010995573829859495,0.014765485189855099,0.006475171539932489
1702338697433911300,23.449911376953125,-0.0003665191470645368,0.003089232835918665,0.0002617993741296232
1702338697533173800,23.549173828125,-0.0021642083302140236,-0.0013788101496174932,-0.0011344640515744686
1702338697632437800,23.648437744140626,-0.00019198621157556772,-0.0023038345389068127,-0.0014486232539638877
1702338697731700500,23.747700439453126,-0.00008726646046852693,-0.00040142572834156454,-0.0009075712296180427
1702338697830964500,23.846964599609375,-0.0005235987482592463,0.0007679448463022709,-0.0004886921960860491
1702338697930227000,23.94622705078125,-0.00040142572834156454,0.00010471975838299841,0.00015707963029854
1702338698029491000,24.045490966796876,-0.0009250245057046413,0.0005410520825535059,-0.0014486232539638877
1702338698128753400,24.14475341796875,-0.0015882495790719986,0.0013264502631500363,0.0003490658418741077
1702338698228017700,24.244017578125,-0.00024434609804302454,0.0006806784076616168,0.0008552113431505859
1702338698327280000,24.343280029296874,-0.0012042771559208632,0.00013962633966002613,-0.00038397242315113544
1702338698426544000,24.442544189453123,-0.0003490658418741077,0.0010995573829859495,0.0006806784076616168
1702338698525806600,24.541806640625,0.0012042771559208632,-0.0005934119690209627,-0.000715585018042475
1702338698625069000,24.641069091796876,0.00017453292093705386,0.0009250245057046413,-0.00013962633966002613
1702338698724333000,24.7403330078125,-0.0006108652451075613,0.00041887903353199363,-0.00040142572834156454
1702338698823595800,24.839595703125,-0.0015009831404313445,-0.00047123889089562,-0.00013962633966002613
1702338698922859800,24.93885986328125,-0.00017453292093705386,0.0005585053586401045,0.00015707963029854
1702338699022122200,25.038122314453126,-0.0011693706037476659,0.00017453292093705386,-0.0005934119690209627
1702338699121386200,25.13738623046875,-0.0006981316837482154,-0.0006632251315750182,-0.00040142572834156454
1702338699220648700,25.236648681640624,-0.0007504915702156723,0.0009075712296180427,-0.000017453292457503267
1702338699319913000,25.335912841796876,-0.0003665191470645368,0.00040142572834156454,-0.00022689280740451068
1702338699419175400,25.435175537109377,0.00013962633966002613,-0.00015707963029854,-0.0006457717972807586
1702338699518439400,25.534439453125,-0.0003665191470645368,0.0013788101496174932,-0.0006632251315750182
1702338699617702000,25.633701904296874,-0.0013264502631500363,0.00041887903353199363,0.00012217304902151227
1702338699716966000,25.7329658203125,-0.000052359879191499203,-0.0003316125657875091,0.0003490658418741077
1702338699816228400,25.832228271484375,-0.0006108652451075613,0.0011693706037476659,-0.0009948377264663577
1702338699915492600,25.93149267578125,-0.00043633230961859226,0.0006981316837482154,0.00045378561480902135
1702338700014755000,26.030755126953125,-0.00006981316983001307,0.0007330382941290736,0.00008726646046852693
1702338700114017500,26.130017578125,0.00022689280740451068,0.0010821041651070118,-0.00017453292093705386
1702338700213280000,26.229280029296874,0.00024434609804302454,0.0013962633674964309,0.0009075712296180427
1702338700312544000,26.3285439453125,0.00013962633966002613,0.00010471975838299841,0.000052359879191499203
1702338700411808300,26.427808349609375,-0.0010471974965184927,-0.00047123889089562,0
1702338700511070700,26.52707080078125,-0.0008203047327697277,0.0011344640515744686,0.00010471975838299841
1702338700610333200,26.626333251953124,-0.0005235987482592463,0.00015707963029854,-0.00029670598451048136
1702338700709597200,26.72559716796875,-0.0008203047327697277,0.00003490658491500653,-0.0004886921960860491
1702338700808859600,26.824859619140625,-0.00013962633966002613,-0.00040142572834156454,-0.00008726646046852693
1702338700908124000,26.9241240234375,0.00012217304902151227,0.00038397242315113544,0.00027925267932005227
1702338701007388000,27.023387939453126,-0.0013613568153232336,0.00022689280740451068,-0.0005759586347267032
1702338701106650400,27.122650390625,-0.00010471975838299841,-0.00062831852119416,0.0005759586347267032
1702338701205914400,27.221914306640624,-0.0014486232539638877,0.00045378561480902135,0.00041887903353199363
1702338701305175300,27.32117529296875,-0.0009599310578778386,0.0005934119690209627,0.00020943951676599681
1702338701404439300,27.420439208984376,-0.0014486232539638877,0.00017453292093705386,0.0006457717972807586
1702338701503702000,27.519701904296873,0.0005934119690209627,0.00017453292093705386,0.00094247778179124
1702338701602966000,27.618966064453126,-0.0006632251315750182,0.0003665191470645368,0.0013613568153232336
1702338701702228500,27.718228515625,-0.00003490658491500653,0.00013962633966002613,-0.0003490658418741077
1702338701801492500,27.817492431640623,-0.0005934119690209627,0,-0.0005585053586401045
1702338701900756500,27.916756591796876,0.0006457717972807586,0.00031415926059708,0
1702338702000019200,28.016019287109376,-0.0005585053586401045,0.0012217304902151227,-0.0006806784076616168
1702338702099281700,28.11528173828125,-0.0012391837080940604,-0.00062831852119416,0.00003490658491500653
1702338702198545700,28.214545654296874,0.0005585053586401045,-0.0005410520825535059,-0.0004886921960860491
1702338702297809700,28.3138095703125,-0.00047123889089562,0.0012217304902151227,0.00003490658491500653
1702338702397072100,28.413072021484375,-0.0009773843921720982,0.0014137167017906904,-0.00031415926059708
1702338702496334800,28.5123349609375,-0.0007679448463022709,0.0013788101496174932,0.0003665191470645368
1702338702595597300,28.611597412109376,0.0007853981805965304,0.0014137167017906904,0.00019198621157556772
1702338702694861300,28.710861328125,0.00013962633966002613,0.00024434609804302454,0.0006108652451075613
1702338702794123800,28.810123779296877,-0.0013264502631500363,0.00041887903353199363,0.0008552113431505859
1702338702893387800,28.9093876953125,-0.00006981316983001307,0.00003490658491500653,0.0012391837080940604
1702338702992650200,29.008650146484374,-0.0008377580670639873,0.0008901178953237832,-0.0005759586347267032
1702338703091914500,29.10791455078125,0.000017453292457503267,-0.00024434609804302454,0.00020943951676599681
1702338703191177000,29.207177001953124,-0.00012217304902151227,0.0006108652451075613,0.0010122909443452954
1702338703290441000,29.30644091796875,0.0005061454721726477,0.0005061454721726477,0.0005759586347267032
1702338703389703400,29.405703369140625,-0.0009599310578778386,0.0017278759041801095,0.00024434609804302454
1702338703488967400,29.504967529296874,0.00008726646046852693,-0.00010471975838299841,0.0003316125657875091
1702338703588230100,29.604230224609374,-0.001518436474725604,-0.0005235987482592463,0.0006108652451075613
1702338703687494100,29.703494140625,0.000052359879191499203,0.00045378561480902135,0.0003665191470645368
1702338703786756600,29.802756591796875,0.0003490658418741077,-0.00013962633966002613,-0.0003490658418741077
1702338703886019000,29.90201904296875,-0.00031415926059708,0.000017453292457503267,0.00019198621157556772
1702338703985283000,30.001282958984376,-0.00024434609804302454,0.0013788101496174932,-0.00020943951676599681
1702338704084545800,30.1005458984375,0.00027925267932005227,0.00094247778179124,0.0003316125657875091
1702338704183809800,30.199809814453126,-0.0005410520825535059,0.0012217304902151227,0.00022689280740451068
1702338704283073800,30.29907373046875,-0.0007853981805965304,0.0007504915702156723,-0.00031415926059708
1702338704382336300,30.398336181640627,-0.00020943951676599681,0.0005235987482592463,-0.0012915435945615172
1702338704481598700,30.4975986328125,0.0005235987482592463,0.0007853981805965304,0.00062831852119416
1702338704580863000,30.596863037109376,-0.0005061454721726477,-0.000017453292457503267,0.00031415926059708
1702338704680125400,30.69612548828125,0.0002617993741296232,0.000052359879191499203,0.00012217304902151227
1702338704779389400,30.795389404296873,-0.0005410520825535059,0.0008377580670639873,-0.00047123889089562
1702338704878652000,30.89465185546875,-0.00020943951676599681,0.0005759586347267032,0.00047123889089562
1702338704977916000,30.993916015625,0.00017453292093705386,0.0013089969288557768,0.0014137167017906904
1702338705077178400,31.093178466796875,0.0006457717972807586,0.0010821041651070118,0.00045378561480902135
1702338705176441000,31.192441162109375,-0.0010646508308127522,0.0023038345389068127,0.00047123889089562
1702338705275705000,31.291705078125,-0.0008377580670639873,0.0006457717972807586,0.0006108652451075613
1702338705374967600,31.390967529296876,-0.00041887903353199363,0.0019024088978767395,0.0009773843921720982
1702338705474231600,31.4902314453125,-0.0007504915702156723,0,0.0017627825727686286
1702338705573494000,31.589493896484374,0.000017453292457503267,0.00020943951676599681,0.0006981316837482154
1702338705672758300,31.68875830078125,-0.00003490658491500653,-0.00041887903353199363,-0.000052359879191499203
1702338705772020700,31.788020751953123,0.00062831852119416,0.0006632251315750182,-0.0015707963611930609
1702338705871284700,31.88728466796875,-0.0006108652451075613,0.0011693706037476659,0.0015358896926045418
1702338705970547200,31.986547119140624,-0.0010995573829859495,0.0006632251315750182,-0.00020943951676599681
1702338706069811200,32.08581127929688,0.00013962633966002613,0.00022689280740451068,-0.0012740903766825795
1702338706169073700,32.18507373046875,-0.00013962633966002613,0.0009948377264663577,0.00020943951676599681
1702338706268336400,32.28433642578125,-0.0010995573829859495,0.0006981316837482154,0.00047123889089562
1702338706367598800,32.38359887695312,-0.0011693706037476659,0.0005061454721726477,-0.00020943951676599681
1702338706466862800,32.48286279296875,-0.00013962633966002613,0.0010471974965184927,0.00003490658491500653
1702338706566126800,32.582126953125,-0.0006806784076616168,0.0009948377264663577,-0.00015707963029854
1702338706665389300,32.68138940429687,-0.000715585018042475,0.0010995573829859495,0.0012217304902151227
1702338706764653600,32.780653564453125,0.0005410520825535059,0.0007853981805965304,-0.0005061454721726477
1702338706863916000,32.879916015625,0.0004886921960860491,0.00015707963029854,-0.0010646508308127522
1702338706963180000,32.97917993164062,-0.00040142572834156454,-0.0007679448463022709,0.00041887903353199363
1702338707062442500,33.0784423828125,-0.0011868239380419254,0.0016406094655394554,0.00006981316983001307
1702338707161706500,33.17770654296875,0,0.00041887903353199363,0.0007504915702156723
1702338707260969200,33.27696923828125,-0.00094247778179124,0.0013264502631500363,0.0008726646192371845
1702338707360233200,33.37623315429688,-0.0008901178953237832,0.0010646508308127522,-0.0003665191470645368
1702338707459495700,33.47549560546875,-0.0009075712296180427,-0.0005759586347267032,-0.00003490658491500653
1702338707558759700,33.574759765625,-0.0008901178953237832,0.0010995573829859495,0.0003316125657875091
1702338707658022100,33.67402221679688,-0.0007679448463022709,0.0018151424592360854,0.0006108652451075613
1702338707757284600,33.77328466796875,-0.00047123889089562,0.0008726646192371845,0.0007504915702156723
1702338707856547300,33.87254736328125,0,0.0011519172694534063,0.0005585053586401045
1702338707955811300,33.97181127929687,-0.00038397242315113544,0.00094247778179124,-0.00045378561480902135
1702338708055075300,34.071075439453125,-0.0012217304902151227,0.0010122909443452954,0.0010821041651070118
1702338708154337800,34.170337890625,-0.0008552113431505859,0.00019198621157556772,0.00029670598451048136
1702338708253601800,34.26960180664062,0.00022689280740451068,0.0005759586347267032,-0.0005934119690209627
1702338708352864500,34.36886450195313,0.0007504915702156723,0.00040142572834156454,-0.00024434609804302454
1702338708452127000,34.468126953125,-0.00013962633966002613,0.0007330382941290736,0.0004886921960860491
1702338708551391000,34.567390869140624,-0.0007504915702156723,0.0007679448463022709,-0.000052359879191499203
1702338708650653400,34.6666533203125,0.000715585018042475,0.0006981316837482154,0.00006981316983001307
1702338708749917400,34.76591748046875,0.00043633230961859226,0.0006457717972807586,-0.0003316125657875091
1702338708849181700,34.865181640625,-0.0014486232539638877,0.000715585018042475,0.00029670598451048136
1702338708948442600,34.96444262695312,-0.00017453292093705386,0.0016406094655394554,-0.000017453292457503267
1702338709047706600,35.06370654296875,-0.0013613568153232336,0.0007504915702156723,0.00040142572834156454
1702338709146969000,35.16296899414063,-0.0013264502631500363,0.0013962633674964309,-0.00013962633966002613
1702338709246233000,35.26223315429687,0,0.0015009831404313445,-0.00003490658491500653
1702338709345495600,35.36149560546875,0.0007330382941290736,0.00020943951676599681,-0.00094247778179124
1702338709444759800,35.460759765625,0.00043633230961859226,0,0.00013962633966002613
1702338709544023800,35.56002392578125,0.0005585053586401045,0.0005585053586401045,0.00125663704238832
1702338709643286300,35.659286376953126,-0.00040142572834156454,0.0006108652451075613,-0.00047123889089562
1702338709742548700,35.758548828125,-0.0011519172694534063,0.00047123889089562,0.0003316125657875091
1702338709841812700,35.857812744140624,-0.00012217304902151227,0.0007853981805965304,-0.00003490658491500653
1702338709941075500,35.95707543945313,-0.00022689280740451068,0.000052359879191499203,0.00027925267932005227
1702338710040339500,36.05633935546875,-0.0005759586347267032,0.0003490658418741077,-0.00040142572834156454
1702338710139602000,36.155601806640625,-0.0004886921960860491,0.00045378561480902135,-0.0007679448463022709
1702338710238864400,36.25486450195312,-0.0008203047327697277,0.0011868239380419254,0.0003490658418741077
1702338710338128400,36.35412841796875,0.0006108652451075613,0.0013264502631500363,0.0009948377264663577
1702338710437392600,36.453392578125,-0.00062831852119416,0.0008726646192371845,0.0008377580670639873
1702338710536655000,36.55265502929687,0.0006981316837482154,0.00062831852119416,0.00031415926059708
1702338710635917600,36.65191748046875,-0.0013613568153232336,0.0006457717972807586,0.001518436474725604
1702338710735181600,36.751181640625,-0.0011693706037476659,0.00062831852119416,-0.00006981316983001307
1702338710834444000,36.850444091796874,-0.00031415926059708,0.0007679448463022709,0.00041887903353199363
1702338710933708300,36.949708251953126,-0.0006632251315750182,0.001518436474725604,-0.00013962633966002613
1702338711032970800,37.048970703125,0.00024434609804302454,0.0011693706037476659,0.00029670598451048136
1702338711132234800,37.14823486328125,0.00019198621157556772,0.0011693706037476659,-0.00012217304902151227
1702338711231497200,37.24749731445313,-0.00027925267932005227,0.001972222002223134,-0.00043633230961859226
1702338711330761200,37.34676123046875,-0.0009773843921720982,0.0008901178953237832,0.0006806784076616168
1702338711430023700,37.446023681640625,-0.0007679448463022709,0.00143117003608495,0.0006457717972807586
1702338711529288000,37.54528784179688,-0.0007504915702156723,0.0010122909443452954,0.0007853981805965304
1702338711628550400,37.64455029296875,-0.0010122909443452954,0.00040142572834156454,0.0008028514566831291
1702338711727812900,37.74381274414063,-0.00013962633966002613,0.0013613568153232336,0.0005759586347267032
1702338711827076900,37.84307690429687,-0.0009250245057046413,0.00029670598451048136,0.00020943951676599681
1702338711926339300,37.94233935546875,-0.0009599310578778386,0.0008028514566831291,0.0008203047327697277
1702338712025603600,38.041603515625,-0.0003490658418741077,0.0005235987482592463,-0.00062831852119416
1702338712124866000,38.14086596679687,-0.0011344640515744686,0.0005585053586401045,0.00017453292093705386
1702338712224130000,38.240130126953126,-0.00019198621157556772,0.0006632251315750182,0.0003490658418741077
1702338712323392500,38.339392578125,-0.00038397242315113544,0.00006981316983001307,-0.00041887903353199363
1702338712422656500,38.43865649414062,-0.0010122909443452954,0.0020420351065695286,0.00015707963029854
1702338712521919000,38.5379189453125,-0.00041887903353199363,0.0010471974965184927,0.0006108652451075613
1702338712621183200,38.63718334960937,-0.00017453292093705386,0.0007679448463022709,0
1702338712720445700,38.73644580078125,0.00017453292093705386,0.0006806784076616168,-0.00062831852119416
1702338712819708200,38.83570825195312,-0.0006981316837482154,0.001483529806137085,-0.00006981316983001307
1702338712918972200,38.93497216796875,-0.00006981316983001307,0.0010122909443452954,0.00041887903353199363
1702338713018234600,39.034234619140626,-0.00006981316983001307,0.00040142572834156454,0.00006981316983001307
1702338713117499000,39.13349877929687,0.0008203047327697277,0.00008726646046852693,-0.0008203047327697277
1702338713216761300,39.23276123046875,-0.0008377580670639873,0.001658062799833715,-0.00003490658491500653
1702338713316025300,39.332025390625,0.0002617993741296232,-0.00045378561480902135,0.0007679448463022709
1702338713415287800,39.43128784179687,0.00022689280740451068,0.00041887903353199363,-0.00008726646046852693
1702338713514551800,39.5305517578125,0.00006981316983001307,0.00022689280740451068,-0.00040142572834156454
1702338713613814500,39.629814453125,-0.0013089969288557768,0.0006108652451075613,-0.000017453292457503267
1702338713713078500,39.72907861328125,-0.0011344640515744686,0.0010646508308127522,0.0006108652451075613
1702338713812341000,39.82834106445313,-0.00094247778179124,0.0014486232539638877,0.00038397242315113544
1702338713911603500,39.927603515625,-0.001745329238474369,0.00019198621157556772,0.00022689280740451068
1702338714010867500,40.026867431640625,-0.0005585053586401045,0.0011519172694534063,-0.000052359879191499203
1702338714110130000,40.1261298828125,0.0009948377264663577,0.0003316125657875091,0.0006108652451075613
1702338714209394200,40.225394287109374,-0.0005585053586401045,0.0016231562476605177,0.00010471975838299841
1702338714308656600,40.32465673828125,0.00003490658491500653,0.0012042771559208632,0.00205948855727911
1702338714407920600,40.42392065429687,-0.0009599310578778386,0.0010995573829859495,0.00017453292093705386
1702338714507183000,40.52318310546875,-0.0019896754529327154,0.0008552113431505859,-0.0007853981805965304
1702338714606447000,40.622447021484376,-0.00047123889089562,0.00125663704238832,0.0010471974965184927
1702338714705709800,40.72170971679687,-0.001029744278639555,0.00020943951676599681,0.0008377580670639873
1702338714804973800,40.820973876953126,0.00040142572834156454,0.0010471974965184927,0.00012217304902151227
1702338714904236300,40.920236328125,0.00003490658491500653,0.00029670598451048136,-0.00019198621157556772
1702338715003500300,41.01950024414062,-0.00024434609804302454,0,0.0009773843921720982
1702338715102762800,41.1187626953125,0.000715585018042475,0.000052359879191499203,0
1702338715202027000,41.21802709960937,0.0006108652451075613,0.0013089969288557768,0.0007853981805965304
1702338715301289500,41.31728955078125,0.00020943951676599681,0.001658062799833715,0.00027925267932005227
1702338715400552000,41.41655200195312,0.00010471975838299841,0.0014660765882581472,-0.00013962633966002613
1702338715499814400,41.515814453125,-0.0005759586347267032,0.0012391837080940604,-0.00027925267932005227
1702338715599078400,41.615078369140626,-0.0016406094655394554,0.0016057029133662581,0.0008203047327697277
1702338715698342700,41.7143427734375,0.0002617993741296232,0.0003665191470645368,0.00020943951676599681
1702338715797605000,41.813605224609375,-0.002251474652439356,-0.00003490658491500653,0.0005934119690209627
1702338715896869000,41.912869140625,0.00006981316983001307,-0.00008726646046852693,0.0004886921960860491
1702338715996131600,42.01213159179687,-0.00040142572834156454,0.001518436474725604,0.00024434609804302454
1702338716095395600,42.1113955078125,0,0.0013613568153232336,0.00045378561480902135
1702338716194658000,42.21065795898438,-0.00045378561480902135,0.00125663704238832,0.000052359879191499203
1702338716293922300,42.30992236328125,-0.0009250245057046413,0.0016231562476605177,0.00020943951676599681
1702338716393184800,42.40918481445313,-0.00094247778179124,0.001117010717280209,-0.0006806784076616168
1702338716492447200,42.508447265625,0.0005410520825535059,0.0008377580670639873,0.0009773843921720982
1702338716591711200,42.607711181640624,0.0008552113431505859,0.0008901178953237832,0.0006632251315750182
1702338716690973700,42.7069736328125,-0.0003665191470645368,0.0010821041651070118,-0.0010122909443452954
1702338716790236400,42.806236328125,-0.0010821041651070118,0.0019373154500499368,0.0005934119690209627
1702338716889500400,42.90550048828125,-0.0009599310578778386,0.0008901178953237832,0.0007330382941290736
1702338716988763000,43.00476293945312,-0.0010995573829859495,0.0010995573829859495,0.00094247778179124
1702338717088027000,43.10402685546875,-0.0009773843921720982,0.0013089969288557768,0.00022689280740451068
1702338717187291000,43.203290771484376,-0.0012217304902151227,-0.0004886921960860491,-0.00019198621157556772
1702338717286553600,43.3025537109375,-0.00010471975838299841,0.00010471975838299841,-0.000052359879191499203
1702338717385816000,43.40181616210938,0,0.0010646508308127522,0.000017453292457503267
1702338717485080000,43.501080078125,-0.0005410520825535059,0.0007853981805965304,0.0002617993741296232
1702338717584342500,43.600342529296874,-0.0006108652451075613,0.0012042771559208632,0.00038397242315113544
1702338717683606500,43.6996064453125,0.0005934119690209627,-0.00038397242315113544,0.0003316125657875091
1702338717782869000,43.79886889648437,-0.00024434609804302454,0.0017802357906475663,-0.00043633230961859226
1702338717882133200,43.89813330078125,-0.0003490658418741077,0.0014660765882581472,0.0011868239380419254
1702338717981395700,43.99739575195313,-0.00024434609804302454,0.0011344640515744686,0.0004886921960860491
1702338718080658200,44.096658203125,-0.0012042771559208632,0.0010646508308127522,0.00040142572834156454
1702338718179922200,44.195922119140626,-0.0009075712296180427,0.0014486232539638877,0.00029670598451048136
1702338718279184600,44.2951845703125,-0.000052359879191499203,0.0011344640515744686,0.0007853981805965304
1702338718378449000,44.394448974609375,-0.00022689280740451068,0.00017453292093705386,0.00031415926059708
1702338718477711400,44.49371142578125,-0.0009599310578778386,0.001117010717280209,0.00003490658491500653
1702338718576975400,44.59297534179687,0.00022689280740451068,0.0008726646192371845,0.00017453292093705386
1702338718676237800,44.69223779296875,-0.00047123889089562,0.001483529806137085,-0.0002617993741296232
1702338718775501800,44.79150170898438,-0.0007853981805965304,0.0006108652451075613,-0.00020943951676599681
1702338718874764500,44.8907646484375,0.00006981316983001307,0.0012217304902151227,0
1702338718974028500,44.99002856445313,-0.0005934119690209627,0.0012217304902151227,0.00012217304902151227
1702338719073291000,45.089291015625,-0.0009250245057046413,0.001745329238474369,0.0004886921960860491
1702338719172555000,45.188554931640624,-0.00043633230961859226,0.001483529806137085,0.000017453292457503267
1702338719271817500,45.2878173828125,-0.00041887903353199363,0.0010995573829859495,-0.00015707963029854
1702338719371080000,45.38707983398437,-0.001029744278639555,0.0012915435945615172,0.000017453292457503267
1702338719470344200,45.48634423828125,-0.0009075712296180427,0.0009599310578778386,0.00094247778179124
1702338719569606700,45.58560668945312,0.00038397242315113544,0.001343903481028974,-0.00024434609804302454
1702338719668870700,45.68487060546875,0.00015707963029854,0.0011693706037476659,0
1702338719768133000,45.78413305664063,0.00019198621157556772,-0.00019198621157556772,-0.00020943951676599681
1702338719867397000,45.88339721679687,0.00012217304902151227,0.0005235987482592463,-0.0010646508308127522
1702338719966659800,45.982659912109376,0.0005759586347267032,-0.00006981316983001307,0.00019198621157556772
1702338720065923800,46.081923828125,0.00010471975838299841,0.0014486232539638877,0.0003316125657875091
1702338720165186300,46.181186279296874,-0.00008726646046852693,0.0011344640515744686,-0.00029670598451048136
1702338720264450300,46.2804501953125,0.0008901178953237832,0.0003665191470645368,-0.00040142572834156454
1702338720363712800,46.37971264648438,0.00043633230961859226,0.0020420351065695286,-0.0005061454721726477
1702338720462975200,46.478975341796875,-0.0005759586347267032,0.0009773843921720982,0.00022689280740451068
1702338720562239500,46.57823950195313,-0.0012217304902151227,0.0006632251315750182,0.00010471975838299841
1702338720661502000,46.677501953125,-0.0012042771559208632,0.0013613568153232336,-0.0003316125657875091
1702338720760766000,46.776765869140625,-0.00029670598451048136,0.0018151424592360854,0.00043633230961859226
1702338720860028400,46.8760283203125,0.0004886921960860491,0.001029744278639555,-0.00020943951676599681
1702338720959292400,46.97529248046875,-0.00031415926059708,0.0010995573829859495,0.00012217304902151227
1702338721058555100,47.07455517578125,-0.0006806784076616168,0.0021642083302140236,0.00013962633966002613
1702338721157819100,47.17381909179687,-0.00043633230961859226,0.0010122909443452954,-0.000017453292457503267
1702338721257081600,47.27308154296875,-0.0003665191470645368,0.0013264502631500363,0.00029670598451048136
1702338721356345600,47.372345703125,-0.0006981316837482154,0.0005759586347267032,0.0014486232539638877
1702338721455608000,47.471608154296874,-0.00029670598451048136,-0.000017453292457503267,0.0004886921960860491
1702338721554872300,47.570872314453126,-0.00013962633966002613,0.0006981316837482154,-0.00010471975838299841
1702338721654134800,47.670134765625,0.0003490658418741077,0.0008203047327697277,0.0005235987482592463
1702338721753397200,47.769397216796875,-0.0009250245057046413,0.0007330382941290736,0.00019198621157556772
1702338721852661200,47.8686611328125,-0.00094247778179124,0.0004886921960860491,0.0005585053586401045
1702338721951923700,47.967923828125,-0.0009250245057046413,0.0005410520825535059,0.0009250245057046413
1702338722051188000,48.06718798828125,0.00008726646046852693,0.00041887903353199363,0.00022689280740451068
1702338722150450400,48.16645043945312,-0.001483529806137085,0.00017453292093705386,0.0005235987482592463
1702338722249714400,48.26571435546875,-0.00013962633966002613,-0.00003490658491500653,0.00024434609804302454
1702338722348977000,48.36497680664063,-0.0007504915702156723,0.00205948855727911,-0.00012217304902151227
1702338722448241000,48.46424096679687,-0.0011344640515744686,0.0016231562476605177,-0.00029670598451048136
1702338722547503400,48.56350341796875,-0.001117010717280209,0.0010122909443452954,0.0006806784076616168
1702338722646767600,48.662767578125,0.00029670598451048136,-0.0005759586347267032,0.00029670598451048136
1702338722746030000,48.762030029296874,-0.0009599310578778386,0.00047123889089562,-0.0005410520825535059
1702338722845294000,48.861294189453126,-0.0004886921960860491,0.0002617993741296232,-0.0005585053586401045
1702338722944556500,48.960556640625,-0.00012217304902151227,0.0007853981805965304,-0.0005410520825535059
1702338723043819000,49.059819091796875,-0.00045378561480902135,0.0017627825727686286,-0.00062831852119416
1702338723143081700,49.15908178710937,-0.0009075712296180427,0.0003490658418741077,0.00027925267932005227
1702338723242345700,49.258345703125,-0.0015882495790719986,0.0012740903766825795,0.00027925267932005227
1702338723341609700,49.357609619140625,-0.0011519172694534063,0.0014137167017906904,-0.00019198621157556772
1702338723440872200,49.4568720703125,-0.0006981316837482154,0.0016231562476605177,-0.00006981316983001307
1702338723540136200,49.55613623046875,-0.0009948377264663577,0.0017278759041801095,0.00012217304902151227
1702338723639399000,49.65539892578125,-0.0009599310578778386,0.0016057029133662581,-0.0003665191470645368
1702338723738661400,49.75466137695312,-0.00019198621157556772,0.0005410520825535059,0.0005410520825535059
1702338723837925400,49.85392529296875,-0.0011344640515744686,0.0005410520825535059,-0.0009773843921720982
1702338723937189400,49.953189453125,-0.00006981316983001307,0.0003316125657875091,-0.00010471975838299841
1702338724036451800,50.05245190429687,-0.0004886921960860491,0.000052359879191499203,-0.00015707963029854
1702338724135716000,50.151716064453126,0.00010471975838299841,0.0008203047327697277,0.00003490658491500653
1702338724234978600,50.250978515625,-0.00003490658491500653,0.00040142572834156454,0
1702338724334241000,50.350240966796875,0.00012217304902151227,-0.00029670598451048136,0.0009599310578778386
1702338724433505000,50.44950512695313,-0.0010471974965184927,0.00041887903353199363,0.0005061454721726477
1702338724532767500,50.548767578125,0.00017453292093705386,0.0012391837080940604,0.00013962633966002613
1702338724632030000,50.648030029296876,-0.0013089969288557768,-0.00024434609804302454,0.0013264502631500363
1702338724731294200,50.74729418945312,-0.00027925267932005227,0.0007504915702156723,0.0005759586347267032
1702338724830558200,50.84655810546875,0.00031415926059708,0.0003316125657875091,0.00015707963029854
1702338724929820700,50.945820556640626,-0.00040142572834156454,0.00188495556358248,0.0005061454721726477
1702338725029084700,51.04508471679687,-0.001029744278639555,0.0005061454721726477,-0.00019198621157556772
1702338725128347100,51.14434716796875,-0.00038397242315113544,0.0012042771559208632,-0.000017453292457503267
1702338725227609900,51.24360986328125,0,0.0008203047327697277,0.000715585018042475
1702338725326873900,51.34287377929687,-0.0011693706037476659,0.0003665191470645368,0.00012217304902151227
1702338725426136300,51.44213623046875,-0.00010471975838299841,0.00012217304902151227,0.0007504915702156723
1702338725525400300,51.541400390625,-0.00020943951676599681,0.0010646508308127522,0.0011693706037476659
1702338725624662800,51.640662841796875,-0.0008377580670639873,0.0008552113431505859,-0.00020943951676599681
1702338725723925200,51.73992529296875,-0.00015707963029854,0.00013962633966002613,-0.00008726646046852693
1702338725823189500,51.839189453125,-0.0013264502631500363,0.0015009831404313445,0.0003490658418741077
1702338725922452000,51.938451904296876,0.00043633230961859226,0.0003665191470645368,0.0006981316837482154
1702338726021716000,52.03771606445312,-0.00003490658491500653,0.0006981316837482154,0.0008377580670639873
1702338726120978400,52.136978515625,-0.0005061454721726477,0.0022689281031489372,-0.00031415926059708
1702338726220242400,52.236242431640626,-0.0015533430268988013,0.0008377580670639873,0.0009599310578778386
1702338726319505200,52.33550512695312,-0.00045378561480902135,0.0008028514566831291,0.0005061454721726477
1702338726418769200,52.43476904296875,0.0007853981805965304,0.0005061454721726477,0.0006457717972807586
1702338726518031600,52.53403149414063,-0.00024434609804302454,-0.00022689280740451068,0.00015707963029854
1702338726617295600,52.63329565429687,-0.0009948377264663577,0.0021118484437465668,0.0005759586347267032
1702338726716558000,52.73255810546875,0.0005585053586401045,0.0016755161341279745,-0.00040142572834156454
1702338726815822300,52.831822265625,0.00024434609804302454,0.0008203047327697277,0.0005410520825535059
1702338726915084800,52.931084716796875,-0.00040142572834156454,0.0006632251315750182,0.00041887903353199363
1702338727014347300,53.03034716796875,-0.0023911010939627886,0.0011344640515744686,-0.0002617993741296232
1702338727113611300,53.129611328125,-0.0005235987482592463,0.00188495556358248,0.000715585018042475
1702338727212873700,53.228873779296876,-0.0010995573829859495,-0.00024434609804302454,0.0007679448463022709
1702338727312137700,53.3281376953125,-0.00094247778179124,0.0015009831404313445,0.00045378561480902135
1702338727411400400,53.427400390625,-0.00040142572834156454,0.00022689280740451068,-0.0005934119690209627
1702338727510664400,53.52666455078125,-0.00022689280740451068,0.0005759586347267032,0.0003665191470645368
1702338727609927000,53.62592700195312,-0.0013962633674964309,0.0007330382941290736,0.001029744278639555
1702338727709191000,53.72519091796875,-0.00027925267932005227,0.0012042771559208632,0.000017453292457503267
1702338727808453400,53.82445336914063,-0.00062831852119416,0.001343903481028974,0.0006981316837482154
1702338727907717600,53.92371752929687,-0.0009250245057046413,0.0011868239380419254,-0.001117010717280209
1702338728006980000,54.02297998046875,-0.0007504915702156723,0.0008028514566831291,-0.000017453292457503267
1702338728106242600,54.12224267578125,-0.00029670598451048136,0.0005235987482592463,0.001117010717280209
1702338728205506600,54.221506591796874,-0.0005410520825535059,0.0015009831404313445,0.00003490658491500653
1702338728304769000,54.32076904296875,0.0008028514566831291,0.00015707963029854,-0.00027925267932005227
1702338728404033300,54.420033203125,-0.0003665191470645368,0.0014137167017906904,0.0006457717972807586
1702338728503295700,54.519295654296876,-0.00008726646046852693,-0.0005061454721726477,0.0009599310578778386
1702338728602559700,54.61855981445313,-0.0009075712296180427,0.001117010717280209,0.0002617993741296232
1702338728701822200,54.717822265625,-0.00010471975838299841,0.0005061454721726477,0.0007853981805965304
1702338728801086200,54.817086181640626,0.00045378561480902135,0.0023038345389068127,0.0016057029133662581
1702338728900348700,54.9163486328125,-0.0009250245057046413,0.0010995573829859495,0.00017453292093705386
1702338728999613000,55.015613037109375,-0.0021118484437465668,0.0016231562476605177,-0.00020943951676599681
1702338729098875400,55.11487548828125,-0.00017453292093705386,0.0015882495790719986,0.0003665191470645368
1702338729198139400,55.21413940429687,-0.0005061454721726477,0.00012217304902151227,0.0009250245057046413
1702338729297401900,55.31340185546875,-0.0007330382941290736,0.0013264502631500363,0.00024434609804302454
1702338729396664300,55.41266430664062,-0.00015707963029854,0.00062831852119416,0.00040142572834156454
1702338729495928600,55.511928466796874,-0.0008377580670639873,0.0016057029133662581,-0.00019198621157556772
1702338729595191000,55.61119091796875,0.0005585053586401045,0.0007504915702156723,-0.00012217304902151227
1702338729694455000,55.710455078125,-0.00125663704238832,0.0012915435945615172,-0.0004886921960860491
1702338729793717500,55.809717529296876,0.0005061454721726477,0.0013613568153232336,0.00024434609804302454
1702338729892981500,55.9089814453125,-0.0005759586347267032,-0.00045378561480902135,0.0007853981805965304
1702338729992244200,56.008244140625,-0.0008203047327697277,0.0006981316837482154,0.0010122909443452954
1702338730091508200,56.10750830078125,-0.0008203047327697277,0.00094247778179124,0.0008377580670639873
1702338730190770700,56.20677075195312,0.00024434609804302454,0.00029670598451048136,0.0005235987482592463
1702338730290034700,56.30603466796875,0.00006981316983001307,0.0010646508308127522,0.00047123889089562
1702338730389297200,56.40529711914063,0.00043633230961859226,0.00038397242315113544,0.00031415926059708
1702338730488561400,56.5045615234375,0.0009250245057046413,0.0003316125657875091,-0.00013962633966002613
1702338730587823900,56.60382397460938,0.00006981316983001307,0.00013962633966002613,0.001745329238474369
1702338730687086300,56.70308642578125,-0.0006457717972807586,0.0005585053586401045,0.00040142572834156454
1702338730786348800,56.802348876953126,-0.0004886921960860491,0.002373647876083851,-0.00027925267932005227
1702338730885612800,56.90161279296875,0.00022689280740451068,0.0008203047327697277,0.0013089969288557768
1702338730984876800,57.00087670898437,0.00041887903353199363,0.0016231562476605177,0.0005585053586401045
1702338731084139500,57.100139404296876,-0.0007679448463022709,0.0008552113431505859,0.00024434609804302454
1702338731183403500,57.19940356445313,-0.0007504915702156723,0.0009250245057046413,0.00031415926059708
1702338731282666000,57.298666015625,-0.0013089969288557768,0.0009250245057046413,-0.0010646508308127522
1702338731381928400,57.39792846679688,-0.00020943951676599681,0.000052359879191499203,0.0005585053586401045
1702338731481192400,57.4971923828125,-0.0009599310578778386,0.0003665191470645368,-0.0006632251315750182
1702338731580456700,57.596456787109375,-0.0005585053586401045,-0.0013089969288557768,-0.00012217304902151227
1702338731679719200,57.69571923828125,-0.00019198621157556772,0.0007330382941290736,-0.0002617993741296232
1702338731778983200,57.79498315429687,0.0002617993741296232,0.00022689280740451068,0
1702338731878245600,57.89424560546875,-0.00125663704238832,0.0005759586347267032,-0.00010471975838299841
1702338731977508000,57.99350805664063,-0.00062831852119416,0.001745329238474369,-0.00031415926059708
1702338732076772400,58.0927724609375,-0.0007679448463022709,0.0007504915702156723,0.0016231562476605177
1702338732176036400,58.192036376953126,-0.00125663704238832,0.0011344640515744686,-0.0010821041651070118
1702338732275297300,58.29129736328125,-0.0005235987482592463,0.0013788101496174932,0.00008726646046852693
1702338732374561300,58.390561279296875,-0.0012217304902151227,0.0017278759041801095,-0.0008028514566831291
1702338732473825300,58.4898251953125,-0.0006457717972807586,0.0006108652451075613,-0.00013962633966002613
1702338732573087700,58.58908764648437,0.00029670598451048136,0.0009250245057046413,-0.000052359879191499203
1702338732672350500,58.6883505859375,-0.00003490658491500653,0.0012391837080940604,0.0005410520825535059
1702338732771614500,58.78761450195312,-0.00020943951676599681,0.0005061454721726477,0.0006806784076616168
1702338732870877000,58.886876953125,-0.0011519172694534063,0.001483529806137085,0.00047123889089562
1702338732970141000,58.98614086914063,-0.0007853981805965304,0.001117010717280209,-0.0006108652451075613
1702338733069405000,59.08540502929687,-0.0006108652451075613,0.0018151424592360854,-0.00013962633966002613
1702338733168667600,59.184667724609376,-0.0010821041651070118,0.0021118484437465668,0.001029744278639555
1702338733267930000,59.28393017578125,-0.0013962633674964309,0.001029744278639555,0.0007679448463022709
1702338733367194000,59.383194091796874,-0.001518436474725604,0.0023038345389068127,0.0005585053586401045
1702338733466456600,59.48245654296875,0,0.001029744278639555,-0.00045378561480902135
1702338733565719000,59.58171899414062,-0.0006806784076616168,0.0012915435945615172,0.0012391837080940604
1702338733664983000,59.680983154296875,-0.0012217304902151227,0.0015009831404313445,0.0003316125657875091
1702338733764245800,59.78024584960937,0.00010471975838299841,0.0006457717972807586,-0.000052359879191499203
1702338733863509800,59.879509765625,-0.00020943951676599681,0.0015882495790719986,-0.0005061454721726477
1702338733962772200,59.97877221679688,-0.0010122909443452954,0.001117010717280209,0.0008377580670639873
1702338734062036200,60.0780361328125,0.00038397242315113544,0.0006632251315750182,-0.00045378561480902135
1702338734161298700,60.177298583984374,0,0.0005235987482592463,-0.00045378561480902135
1702338734260563000,60.27656298828125,-0.0006981316837482154,0.0007853981805965304,-0.00043633230961859226
1702338734359825400,60.37582543945312,-0.0009075712296180427,0.0008726646192371845,0.0005061454721726477
1702338734459089400,60.47508935546875,-0.00029670598451048136,0.0015707963611930609,-0.00020943951676599681
1702338734558352000,60.57435180664063,-0.00062831852119416,0.0008552113431505859,0
1702338734657614300,60.6736142578125,-0.00125663704238832,0.002775073517113924,0.00017453292093705386
1702338734756878600,60.77287866210938,-0.00094247778179124,0.0022689281031489372,0.00022689280740451068
1702338734856141000,60.87214111328125,-0.00024434609804302454,0.0015358896926045418,-0.00003490658491500653
1702338734955405000,60.971405029296875,0.0005235987482592463,0.0018325956771150231,0.00045378561480902135
1702338735054667500,61.07066748046875,-0.0009075712296180427,0.0007504915702156723,0.0009250245057046413
1702338735153931500,61.169931640625,-0.0012042771559208632,0.0010471974965184927,0.0002617993741296232
1702338735253194000,61.26919409179688,0.00008726646046852693,0.00031415926059708,-0.00020943951676599681
1702338735352458200,61.36845825195312,-0.0008726646192371845,-0.0002617993741296232,0.00008726646046852693
1702338735451720700,61.467720703125,0.0003665191470645368,0.0008726646192371845,-0.0002617993741296232
1702338735550984700,61.56698461914063,-0.0008377580670639873,0.00125663704238832,0.0003665191470645368
1702338735650247200,61.6662470703125,-0.0017104226863011718,0.0024085543118417263,0.000017453292457503267
1702338735749511200,61.76551123046875,0.0005585053586401045,0.0007330382941290736,0.00013962633966002613
1702338735848774000,61.86477392578125,-0.0002617993741296232,0.0009075712296180427,0.00010471975838299841
1702338735948038000,61.96403784179687,0.0014137167017906904,0.0003490658418741077,-0.00012217304902151227
1702338736047300400,62.06330029296875,-0.00022689280740451068,0.0014660765882581472,0.00008726646046852693
1702338736146562800,62.16256274414062,-0.00022689280740451068,0.0019373154500499368,0
1702338736245826800,62.261826904296875,-0.0008028514566831291,0.0015707963611930609,0
1702338736345089500,62.36108959960937,-0.0005934119690209627,-0.00031415926059708,0.00027925267932005227
1702338736444353500,62.460353515625,-0.00040142572834156454,0.0007679448463022709,-0.0005410520825535059
1702338736543616000,62.559615966796876,0.0006457717972807586,0.0005410520825535059,-0.0003665191470645368
1702338736642880000,62.6588798828125,-0.00041887903353199363,0.0012217304902151227,-0.00012217304902151227
1702338736742142500,62.758142578125,-0.0003316125657875091,0.001117010717280209,0.00003490658491500653
1702338736841406700,62.85740673828125,0.0006457717972807586,0.0007679448463022709,-0.0003490658418741077
1702338736940669200,62.95666918945312,-0.00040142572834156454,0.0003665191470645368,0.0009599310578778386
1702338737039933200,63.05593310546875,0.00015707963029854,0.0004886921960860491,-0.00003490658491500653
1702338737139195600,63.15519555664063,-0.00047123889089562,0.0018151424592360854,-0.00010471975838299841
1702338737238459600,63.25445971679687,-0.0008028514566831291,0.0006108652451075613,-0.0005061454721726477
1702338737337722000,63.35372216796875,-0.0019896754529327154,0.0010122909443452954,0.0009075712296180427
1702338737436984800,63.45298486328125,0.00013962633966002613,0.0015882495790719986,0.0009250245057046413
1702338737536248800,63.552248779296875,-0.00010471975838299841,0.002548180753365159,0.0010821041651070118
1702338737635511300,63.65151123046875,-0.00038397242315113544,0.001029744278639555,-0.0005759586347267032
1702338737734775300,63.750775390625,-0.0003490658418741077,0.0018500490114092827,0.0007853981805965304
1702338737834037800,63.850037841796876,-0.00143117003608495,0.0015882495790719986,0.00062831852119416
1702338737933302000,63.94930200195312,-0.0012915435945615172,0.0014137167017906904,0.00019198621157556772
1702338738032564500,64.048564453125,-0.00027925267932005227,0.0008726646192371845,0.0003490658418741077
1702338738131828500,64.14782836914063,0.00027925267932005227,0.00008726646046852693,0.00013962633966002613
1702338738231091000,64.24709106445313,-0.0017104226863011718,0.0005585053586401045,0.00041887903353199363
1702338738330355000,64.34635498046875,-0.0009599310578778386,0.0009599310578778386,-0.00020943951676599681
1702338738429617700,64.44561767578125,-0.001117010717280209,0.0002617993741296232,-0.00047123889089562
1702338738528880000,64.54488012695313,-0.0004886921960860491,0.001483529806137085,0.00024434609804302454
1702338738628144000,64.64414404296875,0.0003316125657875091,0.0013962633674964309,0.00024434609804302454
1702338738727406600,64.74340649414063,-0.00062831852119416,0.0017627825727686286,-0.00038397242315113544
1702338738826670600,64.84267065429688,-0.0003490658418741077,0.0015009831404313445,0.0007679448463022709
1702338738925933000,64.94193310546875,-0.0005235987482592463,0.0011344640515744686,0.00008726646046852693
1702338739025197300,65.041197265625,-0.0010995573829859495,0.00045378561480902135,0.0011519172694534063
1702338739124459800,65.14045971679687,-0.00008726646046852693,0.0020420351065695286,0.0010122909443452954
1702338739223723800,65.23972387695312,0.00012217304902151227,0.002251474652439356,0.0005585053586401045
1702338739322986200,65.338986328125,-0.0005410520825535059,0.0017976891249418259,-0.00008726646046852693
1702338739422250200,65.43825024414062,-0.0015533430268988013,0.0010471974965184927,-0.0006981316837482154
1702338739521513000,65.53751293945312,-0.0006632251315750182,0.0006632251315750182,0.0004886921960860491
1702338739620777000,65.63677685546875,0.0010471974965184927,0.00043633230961859226,-0.0003490658418741077
1702338739720039400,65.73603930664062,-0.00008726646046852693,0.0005410520825535059,0.0008377580670639873
1702338739819302000,65.83530200195312,-0.000715585018042475,0.0013264502631500363,0.00029670598451048136
1702338739918566000,65.93456591796875,0.00022689280740451068,0.00015707963029854,-0.0005061454721726477
1702338740017828400,66.03382836914062,-0.0003665191470645368,0.00006981316983001307,-0.0006806784076616168
1702338740117092600,66.13309252929687,-0.00003490658491500653,-0.00019198621157556772,0.0008028514566831291
1702338740216355000,66.23235498046876,-0.0003490658418741077,0.0008203047327697277,-0.0008901178953237832
1702338740315619000,66.331619140625,-0.0017104226863011718,0.00015707963029854,0.00027925267932005227
1702338740414881500,66.43088159179688,0.00017453292093705386,0.0006981316837482154,0.00027925267932005227
1702338740514144000,66.53014404296874,-0.0010821041651070118,0.0008377580670639873,0.00017453292093705386
1702338740613408300,66.629408203125,-0.0009599310578778386,0.001029744278639555,0.00062831852119416
1702338740712672300,66.72867236328125,-0.0009599310578778386,0.00125663704238832,0.000052359879191499203
1702338740811934700,66.82793481445313,-0.0006981316837482154,0.0012391837080940604,0.00012217304902151227
1702338740911197200,66.927197265625,-0.0012391837080940604,0.001745329238474369,0.00019198621157556772
1702338741010461200,67.02646118164063,0.00003490658491500653,0.0005759586347267032,-0.000017453292457503267
1702338741109724000,67.12572387695313,-0.000715585018042475,0.0012740903766825795,-0.0006806784076616168
1702338741208988000,67.22498779296875,-0.0008552113431505859,0.00010471975838299841,0.0003490658418741077
1702338741308250400,67.32425048828125,-0.001029744278639555,0.00205948855727911,-0.00008726646046852693
1702338741407512800,67.42351293945312,-0.001483529806137085,0.0018500490114092827,0.0011868239380419254
1702338741506776800,67.52277685546875,-0.0005585053586401045,0.0014486232539638877,0.0005759586347267032
1702338741606039300,67.62203930664063,-0.0003316125657875091,0.0009250245057046413,0.0012391837080940604
1702338741705303600,67.72130346679687,-0.000715585018042475,0.00094247778179124,-0.00022689280740451068
1702338741804567600,67.82056762695312,-0.0011344640515744686,0.0010646508308127522,-0.00019198621157556772
1702338741903830000,67.919830078125,-0.00012217304902151227,0.0013264502631500363,0.0005235987482592463
1702338742003092500,68.01909252929687,-0.0012391837080940604,0.0015707963611930609,0.00041887903353199363
1702338742102356500,68.1183564453125,-0.00029670598451048136,0.0010646508308127522,0.00020943951676599681
1702338742201620700,68.21762084960938,-0.00013962633966002613,0.0011868239380419254,0.0008901178953237832
1702338742300883200,68.31688330078126,0.0003665191470645368,0.0005061454721726477,0.0007679448463022709
1702338742400145700,68.41614575195312,-0.0008203047327697277,0.0022689281031489372,-0.00015707963029854
1702338742499408100,68.515408203125,-0.0007504915702156723,0.0014486232539638877,0.00038397242315113544
1702338742598672100,68.61467211914062,-0.00062831852119416,0.0007330382941290736,0.0010821041651070118
1702338742697934800,68.71393481445313,-0.000715585018042475,0.00062831852119416,0.0008377580670639873
1702338742797198800,68.81319873046876,-0.00013962633966002613,0.00045378561480902135,0.00019198621157556772
1702338742896461300,68.91246142578125,0,0.00015707963029854,-0.00013962633966002613
1702338742995725300,69.01172534179688,0.000017453292457503267,0.0010995573829859495,0.00013962633966002613
1702338743094987800,69.11098779296876,-0.0008377580670639873,0.0008203047327697277,0.0006981316837482154
1702338743194252000,69.210251953125,0.00013962633966002613,0.000052359879191499203,-0.0008901178953237832
1702338743293514500,69.30951440429688,-0.0006108652451075613,0.0011868239380419254,-0.00038397242315113544
1702338743392778500,69.40877856445313,-0.00013962633966002613,0.000715585018042475,-0.00008726646046852693
1702338743492041000,69.508041015625,-0.00094247778179124,0.0013613568153232336,0.0004886921960860491
1702338743591305000,69.60730493164063,-0.00125663704238832,0.0016057029133662581,0.0004886921960860491
1702338743690567400,69.7065673828125,-0.0006981316837482154,0.00125663704238832,0.00038397242315113544
1702338743789830100,69.805830078125,-0.00020943951676599681,0.0015533430268988013,-0.00012217304902151227
1702338743889094100,69.90509423828125,-0.00024434609804302454,0.0018500490114092827,0.0007330382941290736
1702338743988356600,70.00435668945312,-0.0007679448463022709,0.00125663704238832,0.000052359879191499203
1702338744087620600,70.10362060546875,-0.0015533430268988013,0.002251474652439356,0.0013089969288557768
1702338744186883000,70.20288305664063,0.0005235987482592463,0.0013962633674964309,0.00020943951676599681
1702338744286147300,70.30214721679687,-0.0005061454721726477,0.0013613568153232336,-0.00008726646046852693
1702338744385409800,70.40140991210937,0.0008028514566831291,0.0026354470755904913,0.00024434609804302454
1702338744484673800,70.500673828125,-0.0004886921960860491,0.0008552113431505859,-0.00010471975838299841
1702338744583936300,70.59993627929687,0.00006981316983001307,0.001518436474725604,0.001029744278639555
1702338744683200300,70.6992001953125,0.00029670598451048136,0.00041887903353199363,-0.00013962633966002613
1702338744782463000,70.798462890625,-0.0003490658418741077,0.0010471974965184927,0
1702338744881727000,70.89772705078126,-0.00008726646046852693,0.0002617993741296232,-0.00003490658491500653
1702338744980989400,70.99698950195312,0.00047123889089562,0.0010471974965184927,0.00008726646046852693
1702338745080253400,71.09625341796875,-0.0012217304902151227,0.0021642083302140236,0.0003665191470645368
1702338745179516000,71.19551586914062,-0.0010122909443452954,0.0012740903766825795,0.00027925267932005227
1702338745278780200,71.2947802734375,-0.0005934119690209627,0.00027925267932005227,0.0009250245057046413
1702338745378042600,71.39404272460938,0.00012217304902151227,-0.00010471975838299841,-0.0002617993741296232
1702338745477305000,71.49330517578124,0.009564404375851154,-0.2819928526878357,-0.1644274741411209
1702338745576569000,71.59256909179688,-0.053302355110645294,-0.25298547744750977,-0.06270968168973923
1702338745675831600,71.69183154296876,0.0003490658418741077,-0.0039618974551558495,-0.002914699725806713
1702338745775095600,71.79109545898437,-0.029600784182548523,0.4052305519580841,0.20439550280570984
1702338745874358300,71.89035815429688,-0.002478367416188121,-0.034435346722602844,-0.015655603259801865
1702338745973622300,71.98962231445313,0.00008726646046852693,-0.011658798903226852,-0.006963863503187895
1702338746072884700,72.088884765625,-0.001972222002223134,0.01392772700637579,0.014206980355083942
1702338746172147200,72.18814721679688,0.1969953179359436,0.03450515866279602,0.025499260053038597
1702338746271411200,72.2874111328125,1.5641815662384033,-0.20760691165924072,-0.058259088546037674
1702338746370673700,72.38667358398438,-0.35466834902763367,0.03249803185462952,0.0018151424592360854
1702338746469938000,72.48593798828125,-0.0021816615480929613,-0.0030194194987416267,-0.0026529005263000727
1702338746569200400,72.58520043945313,0.2555162012577057,0.0547335259616375,-0.02200860157608986
1702338746668464400,72.68446435546875,0.5798158049583435,0.18123498558998108,-0.042411502450704575
1702338746767726800,72.78372680664063,0.9056164622306824,-0.2970201373100281,0.11327186971902847
1702338746866991000,72.8829912109375,0.570460855960846,0.14999359846115112,-0.09711012244224548
1702338746966253600,72.98225366210937,-1.0697821378707886,0.2344151735305786,0.12344713509082794
1702338747065517600,73.081517578125,0.34065335988998413,-0.1143539696931839,-0.039304815232753754
1702338747164780000,73.18078002929687,0.14723597466945648,0.046705011278390884,-0.04567526653409004
1702338747264044000,73.2800439453125,0.15744614601135254,0.07476990669965744,-0.03649483621120453
1702338747363306500,73.37930639648438,0.10267771780490875,-0.009791296906769276,0.04056145250797272
1702338747462570800,73.47857080078126,0.6584778428077698,0.4700171649456024,0.029862582683563232
1702338747561833200,73.57783325195312,0.14816099405288696,-0.17449802160263062,-0.1235518604516983
1702338747661095700,73.677095703125,-0.22532200813293457,-0.173939511179924,0.08054694533348083
1702338747760359700,73.77635961914062,-1.346451759338379,0.013840461149811745,0.02724459022283554
1702338747859622100,73.8756220703125,-0.06173229590058327,-0.3029891550540924,-0.1581268310546875
1702338747958886400,73.97488647460938,0.2683618366718292,0.24760985374450684,-0.04057890549302101
1702338748058148900,74.07414892578124,-0.48406705260276794,0.35763540863990784,0.025848325341939926
1702338748157412900,74.17341284179687,-0.7739313244819641,0.5257629752159119,0.22600267827510834
1702338748256675300,74.27267529296876,-0.8326442241668701,-0.06028367206454277,0.32969269156455994
1702338748355939300,74.37193920898437,-1.2307363748550415,-0.12630948424339294,0.05363396927714348
1702338748455201800,74.47120190429688,-1.7742493152618408,-0.003403391921892762,-0.0159872155636549
1702338748554466000,74.57046606445313,-1.5922290086746216,0.6644293665885925,0.6337639689445496
1702338748653728500,74.669728515625,-1.214033603668213,0.48345619440078735,0.5681919455528259
1702338748752991000,74.76899096679688,-0.4996702969074249,-0.8513890504837036,-0.08114035427570343
1702338748852255000,74.8682548828125,-1.5600800514221191,1.416212558746338,0.020542524755001068
1702338748951517400,74.96751733398438,0.06630505621433258,-0.024329889565706253,-0.3513696789741516
1702338749050781700,75.06678173828125,0.10995574295520782,0.08859290927648544,-0.43968334794044495
1702338749150044200,75.16604418945313,-0.007365289609879255,-0.5990144610404968,-0.5611408352851868
1702338749249306600,75.265306640625,-0.01736602559685707,-0.7515736818313599,-0.41894882917404175
1702338749348570600,75.36457055664063,-0.1558579057455063,0.0734434574842453,-0.15739379823207855
1702338749447834600,75.46383471679688,-0.28441885113716125,0.2620786428451538,0.32019808888435364
1702338749547097300,75.56309741210937,-0.9565277099609375,-2.250654458999634,0.23497366905212402
1702338749646359800,75.66235986328125,-0.12177161872386932,0.045727625489234924,-0.07211700081825256
1702338749745623800,75.76162377929687,0.012531463988125324,0.01226966455578804,0.020123645663261414
1702338749844887800,75.8608876953125,0.02085668407380581,0.02330014482140541,0.009581857360899448
1702338749944150300,75.960150390625,-0.00013962633966002613,-0.02453932911157608,-0.016667895019054413
1702338750043414500,76.05941455078126,-0.0009773843921720982,-0.006265731994062662,-0.0013788101496174932
1702338750142675500,76.15867553710937,-0.0012042771559208632,0.0017278759041801095,0.0008552113431505859
1702338750241939500,76.257939453125,-0.0005061454721726477,0.0031415927223861217,0.0006806784076616168
1702338750341202000,76.35720190429687,-0.0006632251315750182,0.00125663704238832,0.00045378561480902135
1702338750440466000,76.4564658203125,-0.0014660765882581472,0.002460914198309183,0.0003490658418741077
1702338750539728400,76.55572827148437,-0.0005759586347267032,0.0012217304902151227,0.0006632251315750182
1702338750638992600,76.65499267578124,-0.0006806784076616168,0.0016755161341279745,0.00022689280740451068
1702338750738255000,76.75425512695313,-0.0011693706037476659,0.0032463124953210354,0.00019198621157556772
1702338750837519000,76.85351904296876,-0.00094247778179124,0.00022689280740451068,0.00003490658491500653
1702338750936781600,76.95278149414062,-0.0011519172694534063,0.0009948377264663577,0.0011693706037476659
1702338751036045600,77.05204565429688,-0.0009948377264663577,0.0011693706037476659,-0.00013962633966002613
1702338751135308300,77.15130834960938,-0.0011868239380419254,0.0006457717972807586,0.00041887903353199363
1702338751234572300,77.250572265625,-0.0011868239380419254,0.0023911010939627886,0.0010821041651070118
1702338751333834800,77.34983471679688,-0.0012042771559208632,0.0017104226863011718,-0.0005235987482592463
1702338751433097200,77.44909716796874,-0.0013089969288557768,0.0023561944253742695,0.0019896754529327154
1702338751532361200,77.548361328125,-0.0003665191470645368,0.0019896754529327154,0.00062831852119416
1702338751631623700,77.64762377929688,-0.0008203047327697277,0.0014486232539638877,0.0016057029133662581
1702338751730888000,77.74688793945313,-0.0015882495790719986,0.0019024088978767395,0.00094247778179124
1702338751830150400,77.846150390625,-0.0022689281031489372,0.00022689280740451068,0.00015707963029854
1702338751929414400,77.94541430664063,-0.002024581888690591,0.0020769417751580477,0.0012391837080940604
1702338752028676900,78.0446767578125,-0.0005585053586401045,-0.0007679448463022709,-0.000017453292457503267
1702338752127940900,78.14394091796875,-0.0007330382941290736,0.00019198621157556772,-0.0005585053586401045
1702338752227203600,78.24320361328125,-0.0016231562476605177,0.0013962633674964309,0.0004886921960860491
1702338752326467600,78.34246752929687,0.0003490658418741077,-0.0007679448463022709,-0.0008377580670639873
1702338752425730000,78.44172998046875,-0.001518436474725604,0.0003490658418741077,-0.0007330382941290736
1702338752524994000,78.540994140625,-0.0012391837080940604,-0.00015707963029854,-0.001029744278639555
1702338752624256500,78.64025659179687,-0.0004886921960860491,-0.0011519172694534063,-0.0018500490114092827
1702338752723519000,78.73951904296875,-0.002478367416188121,0.001029744278639555,-0.00043633230961859226
1702338752822783200,78.838783203125,0,0.0010821041651070118,-0.0008552113431505859
1702338752922045700,78.93804565429687,-0.0009599310578778386,0.0008203047327697277,-0.0007679448463022709
1702338753021309700,79.03730981445312,0.00019198621157556772,-0.000017453292457503267,0.0005934119690209627
1702338753120572200,79.136572265625,-0.0010646508308127522,0.0006981316837482154,0.0005235987482592463
1702338753219836400,79.23583642578124,-0.0005934119690209627,0.0019547687843441963,-0.0006632251315750182
1702338753319099000,79.33509887695313,-0.00020943951676599681,0.000715585018042475,0.0005061454721726477
1702338753418363000,79.43436279296876,-0.0013264502631500363,0.0020943949930369854,0.0003665191470645368
1702338753517625300,79.53362524414062,-0.0003490658418741077,0.00331612559966743,0.0008203047327697277
1702338753616889300,79.63288940429688,-0.0010471974965184927,0.0026529005263000727,0.001029744278639555
1702338753716151800,79.73215185546874,-0.0009948377264663577,0.0010471974965184927,0.0012915435945615172
1702338753815416000,79.831416015625,-0.00013962633966002613,0.0021293016616255045,0.00047123889089562
1702338753914678500,79.93067846679688,-0.0020420351065695286,0.002373647876083851,0.001658062799833715
1702338754013941000,80.02994091796874,-0.0012042771559208632,0.001658062799833715,0.0003316125657875091
1702338754113205000,80.129205078125,-0.00188495556358248,0.0016755161341279745,0.00094247778179124
1702338754212467500,80.22846752929688,-0.0008552113431505859,0.002234021434560418,0.0008552113431505859
1702338754311731700,80.32773168945313,0,0.001117010717280209,0.0007504915702156723
1702338754410994200,80.426994140625,-0.00094247778179124,0.002687806962057948,0.0009773843921720982
1702338754510258200,80.52625805664063,0.000052359879191499203,0.0015009831404313445,0.00012217304902151227
1702338754609520600,80.62552075195312,-0.0006806784076616168,0.0021293016616255045,-0.0003665191470645368
1702338754708784600,80.72478466796875,-0.0011693706037476659,0.0007853981805965304,0.00024434609804302454
1702338754808047000,80.82404711914063,-0.00143117003608495,0.0023387412074953318,-0.000017453292457503267
1702338754907311400,80.92331127929687,-0.0010995573829859495,0.0024958208668977022,-0.00017453292093705386
1702338755006573800,81.02257373046875,-0.00029670598451048136,0.0016755161341279745,0.0009948377264663577
1702338755105837800,81.121837890625,-0.0005759586347267032,0.002146754879504442,0.00003490658491500653
1702338755205100300,81.22110034179687,-0.0005061454721726477,0.002460914198309183,0.0007330382941290736
1702338755304362800,81.32036279296875,-0.0007504915702156723,0.0009250245057046413,-0.0013788101496174932
1702338755403627000,81.419626953125,-0.0007853981805965304,0.0018325956771150231,0.00020943951676599681
1702338755502889500,81.51888940429687,-0.0006632251315750182,0.00019198621157556772,0.00003490658491500653
1702338755602153500,81.61815356445312,0.00017453292093705386,0.0023038345389068127,0.0010122909443452954
1702338755701416000,81.717416015625,-0.0012042771559208632,0.002146754879504442,0.00029670598451048136
1702338755800680000,81.81667993164062,-0.0008552113431505859,0.00013962633966002613,-0.00040142572834156454
1702338755899942700,81.91594262695313,-0.001343903481028974,0.001029744278639555,0.0005410520825535059
1702338755999206700,82.01520654296876,0.000052359879191499203,0.00027925267932005227,-0.00024434609804302454
1702338756098469000,82.11446923828125,-0.0007679448463022709,0.0014137167017906904,0.00012217304902151227
1702338756197731600,82.21373168945313,-0.0006981316837482154,0.0003316125657875091,-0.0015882495790719986
1702338756296995600,82.31299560546876,-0.0006108652451075613,0.001972222002223134,-0.0006806784076616168
1702338756396259800,82.412259765625,-0.0013613568153232336,0.0012915435945615172,-0.000017453292457503267
1702338756495522300,82.51152221679688,-0.0005235987482592463,0.004747295752167702,0.0021293016616255045
1702338756594784800,82.61078466796874,-0.0017627825727686286,0.0014660765882581472,-0.0007504915702156723
1702338756694047200,82.71004711914063,-0.0012042771559208632,0.002286381321027875,0.0007679448463022709
1702338756793311200,82.80931127929688,-0.001029744278639555,0.003577925032004714,0.0020943949930369854
1702338756892573700,82.90857373046875,-0.0009773843921720982,0.0027576202992349863,0.0008377580670639873
1702338756991838000,83.007837890625,-0.001483529806137085,0.0012042771559208632,0.00015707963029854
1702338757091102000,83.10710205078125,-0.0013613568153232336,0.0019198621157556772,0.00062831852119416
1702338757190364400,83.20636450195312,-0.0009948377264663577,0.0014486232539638877,0.0009948377264663577
1702338757289627000,83.305626953125,-0.001518436474725604,0.0023561944253742695,0.0011519172694534063
1702338757388891000,83.40489086914063,-0.00045378561480902135,0.0031066860537976027,-0.00013962633966002613
1702338757488155100,83.50415502929687,-0.0005410520825535059,0.0015707963611930609,0.0009599310578778386
1702338757587417600,83.60341748046875,-0.0006806784076616168,0.0007504915702156723,0.0005410520825535059
1702338757686680000,83.70268017578125,-0.0008726646192371845,0.0005759586347267032,-0.0006632251315750182
1702338757785944000,83.80194409179687,-0.001658062799833715,0.00205948855727911,0.001029744278639555
1702338757885206500,83.90120654296875,-0.0005934119690209627,0.0019547687843441963,-0.0010646508308127522
1702338757984469000,84.00046899414062,-0.00125663704238832,0.0008552113431505859,0.00045378561480902135
1702338758083733200,84.09973315429687,-0.00062831852119416,0.0018500490114092827,0.0006981316837482154
1702338758182995700,84.19899560546875,-0.00045378561480902135,0.004241149872541428,0.0015009831404313445
1702338758282259700,84.298259765625,0.00017453292093705386,0.001343903481028974,0.00047123889089562
1702338758381522200,84.39752221679687,-0.0021118484437465668,0.003176499158143997,0.001745329238474369
1702338758480786200,84.4967861328125,-0.00024434609804302454,0.0020420351065695286,0.0008726646192371845
1702338758580049000,84.596048828125,-0.0008203047327697277,0.0024085543118417263,0.0007504915702156723
1702338758679313000,84.69531298828124,-0.0013613568153232336,0.000715585018042475,0.0009599310578778386
1702338758778575400,84.79457543945313,-0.0011519172694534063,0.0022165682166814804,0.0002617993741296232
1702338758877839400,84.89383935546876,-0.0015707963611930609,0.0019024088978767395,-0.000052359879191499203
1702338758977101800,84.99310180664062,-0.0012915435945615172,0.0015358896926045418,0.0005410520825535059
1702338759076364500,85.09236450195313,-0.00013962633966002613,0.0024085543118417263,0.0005759586347267032
1702338759175628500,85.19162866210938,-0.0009250245057046413,0.0011519172694534063,0.0007679448463022709
1702338759274891000,85.29089111328125,-0.0012740903766825795,0.0024434609804302454,0.0008552113431505859
1702338759374155000,85.39015502929688,-0.0019198621157556772,0.0008377580670639873,-0.0002617993741296232
1702338759473417500,85.48941748046875,-0.0019024088978767395,0.0015533430268988013,0.00024434609804302454
1702338759572681700,85.588681640625,-0.0007679448463022709,0.0015358896926045418,-0.00006981316983001307
1702338759671944200,85.68794409179688,-0.0013089969288557768,0.0009773843921720982,-0.00027925267932005227
1702338759771208200,85.78720825195313,-0.0011519172694534063,0.0011868239380419254,0.00006981316983001307
1702338759870470700,85.886470703125,-0.000052359879191499203,0.0008377580670639873,0.000052359879191499203
1702338759969734700,85.98573461914063,-0.0005759586347267032,0.0004886921960860491,0.00038397242315113544
1702338760068997000,86.0849970703125,-0.0012740903766825795,0.0006981316837482154,0.0012740903766825795
1702338760168261400,86.18426147460937,-0.0010995573829859495,0.0016406094655394554,-0.0006457717972807586
1702338760267523800,86.28352392578125,-0.0008726646192371845,0.004153883550316095,0.0024085543118417263
1702338760366786300,86.38278637695312,-0.0003490658418741077,-0.0006981316837482154,-0.0021293016616255045
1702338760466050300,86.48205029296875,0.00040142572834156454,0.0008028514566831291,0.00003490658491500653
1702338760565312800,86.58131274414062,-0.0010122909443452954,0.0013089969288557768,0.00010471975838299841
1702338760664577000,86.68057690429687,-0.00017453292093705386,0.001343903481028974,-0.00017453292093705386
1702338760763839500,86.77983959960937,-0.00024434609804302454,0.0006457717972807586,0.000052359879191499203
1702338760863103500,86.879103515625,-0.0007853981805965304,0.0009250245057046413,-0.0005585053586401045
1702338760962366000,86.97836596679687,-0.0016231562476605177,0.0013962633674964309,0.00038397242315113544
1702338761061630000,87.0776298828125,-0.0016057029133662581,0.001117010717280209,-0.00015707963029854
1702338761160892400,87.17689233398437,-0.0006108652451075613,0.0015707963611930609,-0.00017453292093705386
1702338761260156700,87.27615673828124,0.00024434609804302454,0.002827433403581381,0.0014660765882581472
1702338761359419100,87.37541918945313,-0.0010471974965184927,0.002687806962057948,0.0006108652451075613
1702338761458683100,87.47468310546876,-0.001658062799833715,0.0029321531765162945,0.0005410520825535059
1702338761557945600,87.57394555664062,0.00003490658491500653,0.000715585018042475,-0.00020943951676599681
1702338761657209900,87.6732099609375,-0.0008203047327697277,0.0016057029133662581,0.0006632251315750182
1702338761756472300,87.77247241210938,-0.00188495556358248,0.0031939526088535786,0.0007679448463022709
1702338761855734800,87.87173486328125,0.00003490658491500653,0.0006457717972807586,0.00047123889089562
1702338761954998800,87.97099877929688,-0.0006108652451075613,0.00047123889089562,0.00019198621157556772
1702338762054261200,88.07026123046874,-0.0005934119690209627,0.00125663704238832,-0.0003316125657875091
1702338762153525200,88.16952514648438,-0.00040142572834156454,0.00013962633966002613,-0.00040142572834156454
1702338762252788000,88.2687880859375,-0.00047123889089562,0.0003490658418741077,-0.0005585053586401045
1702338762352052000,88.36805200195313,-0.0020420351065695286,0.0010122909443452954,0.00031415926059708
1702338762451314400,88.467314453125,-0.0015882495790719986,0.00205948855727911,0.00015707963029854
1702338762550578400,88.56657836914063,-0.0007853981805965304,0.0022165682166814804,0.00022689280740451068
1702338762649841000,88.6658408203125,-0.00008726646046852693,0.001658062799833715,0.001029744278639555
1702338762749105200,88.76510522460937,-0.0005061454721726477,0.0017802357906475663,0.0004886921960860491
1702338762848367600,88.86436767578125,-0.0008377580670639873,0.0026529005263000727,0.00045378561480902135
1702338762947630000,88.96363012695312,-0.0003316125657875091,0.0013264502631500363,0.00015707963029854
1702338763046894000,89.06289404296875,-0.00012217304902151227,0.0009773843921720982,-0.0005061454721726477
1702338763146158000,89.16215795898438,-0.0004886921960860491,0.0020943949930369854,-0.000017453292457503267
1702338763245420500,89.26142065429687,-0.0005235987482592463,0.0012915435945615172,-0.00041887903353199363
1702338763344683300,89.36068334960937,-0.0010646508308127522,0.0010821041651070118,0.00022689280740451068
1702338763443947300,89.459947265625,-0.0013788101496174932,0.0008552113431505859,-0.00022689280740451068
1702338763543209700,89.55920971679687,-0.0005759586347267032,0.0026179938577115536,-0.00006981316983001307
1702338763642473700,89.6584736328125,-0.0009250245057046413,0.0009773843921720982,0.0008552113431505859
1702338763741736200,89.75773608398437,-0.0018325956771150231,0.0007679448463022709,0.0011868239380419254
1702338763841000400,89.85700048828124,-0.000715585018042475,0.001029744278639555,0.0005585053586401045
1702338763940263000,89.95626293945313,-0.0010995573829859495,0.0013962633674964309,0.0010821041651070118
1702338764039525400,90.055525390625,-0.00006981316983001307,0.0013613568153232336,0.0005585053586401045
1702338764138789400,90.15478930664062,-0.0008552113431505859,0.002007128670811653,0.0010471974965184927
1702338764238051800,90.2540517578125,-0.0009599310578778386,0.0023387412074953318,0.0005410520825535059
1702338764337316000,90.35331616210938,-0.0013962633674964309,0.002146754879504442,0.0005585053586401045
1702338764436578600,90.45257861328125,-0.0017104226863011718,0.00094247778179124,0.00027925267932005227
1702338764535841000,90.55184106445313,-0.0013264502631500363,0.0013264502631500363,0.0011519172694534063
1702338764635105000,90.65110498046874,0,0.0009773843921720982,0.0007504915702156723
1702338764734369000,90.750369140625,-0.00094247778179124,0.0013788101496174932,-0.0006981316837482154
1702338764833631500,90.84963159179688,-0.0014486232539638877,0.0019896754529327154,0.0013264502631500363
1702338764932894200,90.94889428710937,-0.0015009831404313445,0.0025656339712440968,0.0003665191470645368
1702338765032158200,91.048158203125,-0.00125663704238832,0.00045378561480902135,0.0005585053586401045
1702338765131420700,91.14742065429688,-0.0011519172694534063,0.0010122909443452954,0.00125663704238832
1702338765230684700,91.2466845703125,-0.0007330382941290736,0.0011344640515744686,0.0005410520825535059
1702338765329948700,91.34594873046875,-0.00027925267932005227,0.001518436474725604,0.0008552113431505859
1702338765429211400,91.44521142578125,-0.001029744278639555,0.001343903481028974,0.00019198621157556772
1702338765528473900,91.54447387695312,-0.0006981316837482154,0.0015358896926045418,0.0006632251315750182
1702338765627737900,91.64373779296875,-0.002286381321027875,0.0006981316837482154,0.00040142572834156454
1702338765727000300,91.74300024414063,-0.0015009831404313445,0.0008203047327697277,0
1702338765826262800,91.8422626953125,-0.0015882495790719986,0.00027925267932005227,-0.0008552113431505859
1702338765925527000,91.94152709960937,-0.000715585018042475,0.0007504915702156723,0.0003665191470645368
1702338766024789500,92.04078955078126,-0.00006981316983001307,0.0007504915702156723,-0.0005410520825535059
1702338766124053500,92.14005346679687,-0.0010122909443452954,0.001658062799833715,-0.00015707963029854
1702338766223316000,92.23931591796875,-0.00003490658491500653,0.000715585018042475,0.0006806784076616168
1702338766322580000,92.338580078125,-0.00094247778179124,0.0014660765882581472,0.00013962633966002613
1702338766421842400,92.43784252929687,-0.0022689281031489372,0.00143117003608495,0.00006981316983001307
1702338766521106700,92.53710668945313,-0.00125663704238832,0.0016231562476605177,-0.0006457717972807586
1702338766620369200,92.636369140625,-0.0013788101496174932,0.002321287989616394,-0.00017453292093705386
1702338766719633200,92.73563305664062,-0.0017278759041801095,0.0026179938577115536,0.0012740903766825795
1702338766818895600,92.8348955078125,-0.0013089969288557768,0.0038397242315113544,0.0005759586347267032
1702338766918159600,92.93415966796876,-0.002286381321027875,0.0026354470755904913,0.0015009831404313445
1702338767017422300,93.03342236328125,0.00022689280740451068,0.0011693706037476659,0.0003490658418741077
1702338767116684800,93.13268481445313,-0.0006806784076616168,0.002478367416188121,0.00027925267932005227
1702338767215948800,93.23194873046874,-0.0008901178953237832,0.0005934119690209627,-0.00040142572834156454
1702338767315211300,93.33121118164063,-0.00041887903353199363,-0.00024434609804302454,-0.00047123889089562
1702338767414475300,93.43047534179688,-0.0007504915702156723,0.0003665191470645368,-0.0005410520825535059
1702338767513737700,93.52973779296875,-0.0016057029133662581,0.0014137167017906904,0.00031415926059708
1702338767613002000,93.629001953125,-0.00043633230961859226,0.002460914198309183,0.0008726646192371845
1702338767712264400,93.72826440429688,-0.00012217304902151227,0.0010471974965184927,0.0012740903766825795
1702338767811528400,93.82752856445312,0.00022689280740451068,0.002199114765971899,0.00024434609804302454
1702338767910791000,93.926791015625,-0.0005585053586401045,0.002234021434560418,-0.00008726646046852693
1702338768010055200,94.02605517578125,-0.0003316125657875091,0.0011519172694534063,0.00041887903353199363
1702338768109317600,94.12531762695312,-0.0005235987482592463,-0.00003490658491500653,0.0009773843921720982
1702338768208581600,94.22458154296875,0.00047123889089562,0.0019547687843441963,0.0013613568153232336
1702338768307844000,94.32384399414063,-0.0008901178953237832,-0.000715585018042475,0.00022689280740451068
1702338768407106600,94.4231064453125,-0.0019547687843441963,0.0014660765882581472,0.001117010717280209
1702338768506370600,94.52237060546875,-0.00003490658491500653,0.00022689280740451068,-0.0003490658418741077
1702338768605633300,94.62163330078126,-0.0018325956771150231,0.0008552113431505859,-0.00024434609804302454
1702338768704897300,94.72089721679687,-0.0014486232539638877,0.0011344640515744686,-0.0007853981805965304
1702338768804159700,94.82015966796875,-0.001029744278639555,0.0019896754529327154,0.00041887903353199363
1702338768903423700,94.919423828125,0,-0.005881759338080883,-0.007906341925263405
1702338769002686200,95.01868627929687,-0.00038397242315113544,0.005078908056020737,0.0005410520825535059
1702338769101950500,95.11795043945312,-0.0005235987482592463,0.00038397242315113544,0.0008203047327697277
1702338769201213000,95.217212890625,-0.00143117003608495,0.002600540639832616,0.0012217304902151227
1702338769300477000,95.31647680664062,-0.0012042771559208632,0.002775073517113924,0.0011519172694534063
1702338769399739400,95.41573950195313,-0.0008901178953237832,0.004712388850748539,0.002146754879504442
1702338769499001900,95.515001953125,-0.001483529806137085,0.0016755161341279745,0.000017453292457503267
1702338769598265900,95.61426586914062,-0.0009250245057046413,0.002775073517113924,0.0008028514566831291
1702338769697528600,95.71352856445313,-0.0012740903766825795,0.00012217304902151227,0.0007330382941290736
1702338769796792600,95.81279248046874,-0.00041887903353199363,0.002286381321027875,-0.0006108652451075613
1702338769896055000,95.91205493164063,-0.0014137167017906904,0.0023911010939627886,0.0013089969288557768
1702338769995319000,96.01131909179688,-0.0006806784076616168,0.00094247778179124,0.00125663704238832
1702338770094581500,96.11058154296875,-0.00015707963029854,0.0018151424592360854,0.0012042771559208632
1702338770193845800,96.209845703125,-0.0008552113431505859,-0.0003316125657875091,0.0007330382941290736
1702338770293108200,96.30910815429688,0.00043633230961859226,0.0035604715812951326,0.0034382985904812813
1702338770392372200,96.40837231445313,-0.00043633230961859226,0.002007128670811653,0.0008203047327697277
1702338770491634700,96.507634765625,-0.0009948377264663577,0.00296705961227417,0.0008203047327697277
1702338770590897200,96.60689721679688,-0.00062831852119416,0.0016231562476605177,0.0010646508308127522
1702338770690161400,96.70616137695312,0.000052359879191499203,-0.0003316125657875091,-0.00027925267932005227
1702338770789423900,96.805423828125,-0.0016057029133662581,0.0020420351065695286,0.0010122909443452954
1702338770888687900,96.90468798828125,-0.0016231562476605177,0.0020420351065695286,-0.00043633230961859226
1702338770987950300,97.00395043945312,-0.0009250245057046413,0.0031241392716765404,0.00024434609804302454
1702338771087214300,97.10321435546875,-0.0017627825727686286,0.0026354470755904913,0.0012217304902151227
1702338771186476800,97.20247680664062,-0.001483529806137085,0.002687806962057948,0.00031415926059708
1702338771285741000,97.30174096679687,-0.00062831852119416,0.0023561944253742695,-0.00006981316983001307
1702338771385003500,97.40100341796875,-0.0010471974965184927,0.0023387412074953318,0.0008377580670639873
1702338771484267500,97.500267578125,-0.00022689280740451068,0.002146754879504442,0.0007853981805965304
1702338771583530000,97.59953002929687,-0.0011868239380419254,0.0018151424592360854,0.0008377580670639873
1702338771682794000,97.6987939453125,-0.0006457717972807586,0.0026179938577115536,0.0006108652451075613
1702338771782056700,97.798056640625,-0.0010821041651070118,0.0011693706037476659,-0.00006981316983001307
1702338771881320700,97.89732080078124,-0.0005235987482592463,0.002321287989616394,-0.00024434609804302454
1702338771980583200,97.99658325195313,-0.0012217304902151227,0.0010122909443452954,-0.0003490658418741077
1702338772079845600,98.095845703125,-0.0014137167017906904,0.002687806962057948,0.0011519172694534063
1702338772179108000,98.19510815429688,-0.0008726646192371845,0.00027925267932005227,0
1702338772278372400,98.29437231445313,-0.0008726646192371845,0.00012217304902151227,-0.00022689280740451068
1702338772377636400,98.39363623046874,-0.0009773843921720982,0.00038397242315113544,-0.00029670598451048136
1702338772476898800,98.49289892578125,-0.0010646508308127522,0.0013089969288557768,0.00024434609804302454
1702338772576162800,98.59216284179688,-0.00047123889089562,0.0012740903766825795,-0.0006632251315750182
1702338772675425300,98.69142529296874,-0.0009075712296180427,0.0027052604127675295,0.0008028514566831291
1702338772774689500,98.790689453125,-0.0010995573829859495,0.00041887903353199363,0.00012217304902151227
1702338772873952000,98.88995190429688,-0.0005934119690209627,0.0013788101496174932,0.0008203047327697277
1702338772973216000,98.98921606445313,-0.0018325956771150231,0.0013089969288557768,-0.000017453292457503267
1702338773072478500,99.088478515625,-0.0006806784076616168,0.0015882495790719986,-0.00012217304902151227
1702338773171742500,99.18774243164063,-0.0017802357906475663,0.0012217304902151227,0.00022689280740451068
1702338773271005000,99.2870048828125,-0.001658062799833715,0.0010646508308127522,0.00022689280740451068
1702338773370267600,99.386267578125,-0.0011344640515744686,0.00251327408477664,0.0012391837080940604
1702338773469531600,99.48553173828125,-0.0008901178953237832,0.0016057029133662581,0.00024434609804302454
1702338773568794000,99.58479418945312,-0.00125663704238832,0.0021293016616255045,0.00094247778179124
1702338773668056600,99.684056640625,-0.002286381321027875,0.002460914198309183,0.00062831852119416
1702338773767320600,99.78332055664063,-0.00188495556358248,0.0016406094655394554,0.000715585018042475
1702338773866584800,99.88258471679687,-0.0008901178953237832,0.0024085543118417263,0.001117010717280209
1702338773965847300,99.98184741210937,-0.00043633230961859226,0.0027925267349928617,-0.0006806784076616168
1702338774065109800,100.08110986328126,-0.0020769417751580477,0.002251474652439356,0.0013962633674964309
1702338774164373800,100.18037377929687,-0.0015358896926045418,0.0016755161341279745,0.0006108652451075613
1702338774263636200,100.27963623046875,-0.0010995573829859495,0.002286381321027875,-0.00029670598451048136
1702338774362900500,100.378900390625,-0.0018325956771150231,0.0014137167017906904,0.0007853981805965304
1702338774462163000,100.47816284179687,-0.0012217304902151227,0.00045378561480902135,0.0010995573829859495
1702338774561427000,100.57742700195313,-0.0015358896926045418,0.0015009831404313445,0.0005410520825535059
1702338774660689400,100.676689453125,-0.0008552113431505859,0.00040142572834156454,0.0003665191470645368
1702338774759952000,100.77595190429687,-0.0005410520825535059,0.0013089969288557768,0.00006981316983001307
1702338774859216000,100.8752158203125,-0.0006981316837482154,0.0019373154500499368,0.0006457717972807586
1702338774958478600,100.974478515625,-0.0011519172694534063,0.0025830871891230345,0.0003665191470645368
1702338775057742600,101.07374267578125,-0.0008726646192371845,0.0015707963611930609,-0.0008552113431505859
1702338775157005000,101.17300512695313,-0.0013962633674964309,0.0013788101496174932,0.0005934119690209627
1702338775256269000,101.27226904296874,-0.002234021434560418,0.0027576202992349863,0.0005759586347267032
1702338775355531500,101.37153149414063,-0.0011519172694534063,-0.002949606394395232,0.00038397242315113544
1702338775454795800,101.47079565429688,-0.0008377580670639873,0.0050090947188436985,0.0023561944253742695
1702338775554058200,101.57005834960937,-0.001658062799833715,0.0045378562062978745,0.0014660765882581472
1702338775653322200,101.669322265625,-0.0007330382941290736,-0.0008726646192371845,0.0003490658418741077
1702338775752584700,101.76858471679688,-0.002024581888690591,0.00427605677396059,0.0009948377264663577
1702338775851848700,101.8678486328125,-0.0023561944253742695,0.00062831852119416,0.00010471975838299841
1702338775951111200,101.96711108398438,-0.001343903481028974,0.0009599310578778386,0.00013962633966002613
1702338776050374000,102.06637377929688,-0.00012217304902151227,0.0012217304902151227,0.0005934119690209627
1702338776149638000,102.16563793945312,-0.001029744278639555,0.0017976891249418259,-0.00031415926059708
1702338776248900400,102.264900390625,-0.0006981316837482154,0.0010471974965184927,0.0005410520825535059
1702338776348164400,102.36416430664063,-0.001117010717280209,0.002321287989616394,0.00022689280740451068
1702338776447426800,102.4634267578125,-0.0007504915702156723,0.0025830871891230345,0.0002617993741296232
1702338776546691000,102.56269116210937,-0.0008028514566831291,0.0009599310578778386,0.0005585053586401045
1702338776645953500,102.66195361328126,-0.0015533430268988013,0.00125663704238832,0.00017453292093705386
1702338776745217500,102.76121752929687,-0.0008552113431505859,0.0024958208668977022,0.00062831852119416
1702338776844480000,102.86047998046875,-0.0013613568153232336,0.0016755161341279745,0.00041887903353199363
1702338776943744000,102.95974389648437,-0.002146754879504442,0.0020769417751580477,0.0005410520825535059
1702338777043006700,103.0590068359375,-0.000715585018042475,0.0013613568153232336,-0.00003490658491500653
1702338777142270700,103.15827075195313,-0.0008726646192371845,0.0008726646192371845,0.00040142572834156454
1702338777241533200,103.257533203125,-0.0009075712296180427,0.00003490658491500653,-0.00038397242315113544
1702338777340795600,103.35679565429687,-0.0012391837080940604,0.0017104226863011718,-0.0003490658418741077
1702338777440059600,103.4560595703125,-0.0012740903766825795,0.0005585053586401045,-0.0008377580670639873
1702338777539322000,103.55532202148437,-0.00094247778179124,0.0017104226863011718,0.00047123889089562
1702338777638586400,103.65458642578125,0.00006981316983001307,0.0013788101496174932,-0.0005585053586401045
1702338777737848800,103.75384887695313,0.000052359879191499203,0.0008552113431505859,0.0012915435945615172
1702338777837112800,103.85311279296874,-0.000052359879191499203,0.0014486232539638877,0.00027925267932005227
1702338777936375300,103.95237524414063,-0.0008726646192371845,0.002024581888690591,0.0005410520825535059
1702338778035639300,104.05163940429688,-0.0019024088978767395,0.002740166848525405,-0.000052359879191499203
1702338778134902000,104.15090209960937,-0.0015707963611930609,0.0012740903766825795,0.0007853981805965304
1702338778234166000,104.250166015625,-0.0007679448463022709,0.00094247778179124,0.00062831852119416
1702338778333428500,104.34942846679688,-0.0013613568153232336,0.001518436474725604,0.0002617993741296232
1702338778432691000,104.44869091796875,-0.0015358896926045418,0.001745329238474369,-0.0003665191470645368
1702338778531955000,104.54795483398438,-0.00017453292093705386,0.0024958208668977022,0.00013962633966002613
1702338778631217700,104.6472177734375,-0.0005759586347267032,0.0017802357906475663,0
1702338778730481700,104.74648168945312,-0.0008028514566831291,0.002687806962057948,0.0010646508308127522
1702338778829744000,104.845744140625,-0.0013788101496174932,0.0013962633674964309,0.0006632251315750182
1702338778929008000,104.94500805664063,-0.0011693706037476659,0.0018325956771150231,0.0010995573829859495
1702338779028270600,105.0442705078125,-0.0005934119690209627,0.0010995573829859495,0.0010646508308127522
1702338779127534800,105.14353491210937,-0.0016406094655394554,0.0026179938577115536,0.00043633230961859226
1702338779226797300,105.24279736328126,-0.0013089969288557768,0.0012217304902151227,-0.00020943951676599681
1702338779326061300,105.34206127929687,-0.00125663704238832,0.002234021434560418,0.0014660765882581472
1702338779425323800,105.44132373046875,-0.0010995573829859495,0.0009250245057046413,0.0014660765882581472
1702338779524587800,105.540587890625,-0.0012217304902151227,0.0024958208668977022,0.0008028514566831291
1702338779623850200,105.63985034179687,-0.000715585018042475,0.0017627825727686286,0.0008901178953237832
1702338779723113000,105.73911303710938,-0.0017104226863011718,0.0003490658418741077,0.0012217304902151227
1702338779822377000,105.838376953125,-0.0008726646192371845,0.0014660765882581472,-0.00010471975838299841
1702338779921639400,105.93763940429687,0.00029670598451048136,0.0017278759041801095,0.00012217304902151227
1702338780020903400,106.0369033203125,-0.0016755161341279745,0.0015707963611930609,-0.000017453292457503267
1702338780120166000,106.13616577148437,-0.0005585053586401045,0.0002617993741296232,-0.00040142572834156454
1702338780219430100,106.23543017578125,-0.0015358896926045418,0.0005410520825535059,-0.00040142572834156454
1702338780318692600,106.33469262695313,-0.0010646508308127522,0.00062831852119416,-0.000052359879191499203
1702338780417955000,106.433955078125,-0.00045378561480902135,0.0007679448463022709,0
1702338780517219000,106.53321899414063,-0.0005410520825535059,-0.0002617993741296232,0.00022689280740451068
1702338780616483000,106.63248315429688,-0.0010646508308127522,0.002478367416188121,-0.0005410520825535059
1702338780715745800,106.73174584960938,-0.00045378561480902135,0.0008203047327697277,0.0015533430268988013
1702338780815008300,106.83100830078125,-0.0006108652451075613,0.002024581888690591,0.0006108652451075613
1702338780914272300,106.93027221679688,-0.001029744278639555,0.0018500490114092827,0.00062831852119416
1702338781013536300,107.02953637695313,-0.0009075712296180427,0.0017278759041801095,-0.00017453292093705386
1702338781112797200,107.12879711914063,-0.00143117003608495,0.0010821041651070118,0.00012217304902151227
1702338781212061200,107.22806127929688,-0.0014486232539638877,0.0013962633674964309,0.0004886921960860491
1702338781311324000,107.32732397460937,-0.0017278759041801095,0.0021816615480929613,0.0006108652451075613
1702338781410588000,107.426587890625,-0.0007853981805965304,0.0017104226863011718,0.00047123889089562
1702338781509852000,107.52585180664063,-0.0003665191470645368,0.00017453292093705386,0.00010471975838299841
1702338781609114400,107.6251142578125,-0.0019198621157556772,0.0010122909443452954,0.0008552113431505859
1702338781708376800,107.724376953125,-0.0010646508308127522,0.0015009831404313445,-0.00008726646046852693
1702338781807641000,107.82364111328125,-0.0014137167017906904,0.00043633230961859226,0.0012391837080940604
1702338781906903600,107.92290356445312,-0.0010646508308127522,0.00045378561480902135,-0.0002617993741296232
1702338782006167600,108.02216748046875,-0.00143117003608495,0.0012740903766825795,0.00062831852119416
1702338782105431600,108.121431640625,-0.001117010717280209,0.0008203047327697277,0.0006108652451075613
1702338782204694000,108.22069409179687,-0.0012217304902151227,0.002548180753365159,-0.00017453292093705386
1702338782303956500,108.31995654296875,-0.0014660765882581472,0.0014137167017906904,-0.00038397242315113544
1702338782403220700,108.419220703125,-0.0022689281031489372,0.0007504915702156723,0.0008203047327697277
1702338782502483200,108.51848315429687,-0.001483529806137085,0.002234021434560418,-0.00040142572834156454
1702338782601745700,108.61774560546876,-0.002024581888690591,0.0013962633674964309,-0.0013264502631500363
1702338782701009700,108.717009765625,-0.0009948377264663577,0.0034732052590698004,0.00017453292093705386
1702338782800272100,108.81627221679688,0.00041887903353199363,0.0006108652451075613,0.00024434609804302454
1702338782899536400,108.91553637695313,-0.00029670598451048136,0.0013613568153232336,0.0008203047327697277
1702338782998798800,109.014798828125,-0.0017976891249418259,0.0010122909443452954,-0.00013962633966002613
1702338783098062800,109.11406274414063,-0.00125663704238832,0.00006981316983001307,0.00043633230961859226
1702338783197325300,109.2133251953125,-0.0007330382941290736,0.0021293016616255045,0.00015707963029854
1702338783296589300,109.31258935546875,-0.0010646508308127522,0.0012915435945615172,0.0005759586347267032
1702338783395852000,109.41185205078125,-0.0011519172694534063,0.0010471974965184927,-0.00043633230961859226
1702338783495114500,109.51111450195313,-0.0004886921960860491,0.0015009831404313445,0.0005410520825535059
1702338783594378500,109.61037841796875,-0.00043633230961859226,0.0008726646192371845,0.000052359879191499203
1702338783693641000,109.70964086914063,-0.0014137167017906904,0.0012042771559208632,0.00008726646046852693
1702338783792905000,109.80890502929688,-0.000715585018042475,0.001343903481028974,0.00008726646046852693
1702338783892167400,109.90816748046875,-0.0029321531765162945,0.002740166848525405,0.00024434609804302454
1702338783991431700,110.007431640625,0.00006981316983001307,0.0016231562476605177,0.0005585053586401045
1702338784090694100,110.10669409179687,-0.001343903481028974,0.002600540639832616,0.00006981316983001307
1702338784189958100,110.20595825195312,-0.001117010717280209,0.0012217304902151227,0.0003665191470645368
1702338784289220600,110.305220703125,-0.00043633230961859226,0.0011868239380419254,0.00013962633966002613
1702338784388484600,110.40448461914062,-0.00040142572834156454,0.00043633230961859226,-0.00008726646046852693
1702338784487747300,110.50374731445312,-0.0005585053586401045,0.0015358896926045418,0.0008901178953237832
1702338784587011300,110.60301123046875,0.000052359879191499203,0.0015707963611930609,0.00012217304902151227
1702338784686273800,110.70227368164062,-0.001518436474725604,0.0009250245057046413,-0.0002617993741296232
1702338784785537800,110.80153784179687,-0.00143117003608495,0.001658062799833715,0.0005061454721726477
1702338784884800300,110.90080029296875,-0.0002617993741296232,0.0007504915702156723,-0.0005585053586401045
1702338784984063000,111.00006298828124,-0.00094247778179124,0.0019198621157556772,0.00019198621157556772
1702338785083327000,111.09932690429687,-0.001658062799833715,0.0007853981805965304,0.00040142572834156454
1702338785182589400,111.19858935546876,-0.001483529806137085,0.0021816615480929613,0.0010122909443452954
1702338785281853400,111.297853515625,-0.00143117003608495,0.002373647876083851,0.0005235987482592463
1702338785381116000,111.39711596679687,-0.0019547687843441963,0.0020769417751580477,0.0008377580670639873
1702338785480380200,111.49638012695313,-0.00027925267932005227,0.0010995573829859495,0.00015707963029854
1702338785579642600,111.595642578125,0.00043633230961859226,0.00015707963029854,0.0005061454721726477
1702338785678906600,111.69490673828125,-0.00015707963029854,0.0021293016616255045,0.0007504915702156723
1702338785778169000,111.79416918945313,-0.0016057029133662581,0.0026354470755904913,0.00003490658491500653
1702338785877433000,111.89343310546874,-0.0016231562476605177,0.0012391837080940604,0.0007853981805965304
1702338785976695600,111.99269555664063,-0.00008726646046852693,0.0007330382941290736,0.0006806784076616168
1702338786075959800,112.09195971679688,-0.00094247778179124,0.0016057029133662581,0.0011344640515744686
1702338786175222300,112.19122216796875,-0.0009948377264663577,0.0017976891249418259,-0.00038397242315113544
1702338786274484700,112.29048461914063,0.00010471975838299841,0.0018675023457035422,0.00043633230961859226
1702338786373748700,112.38974877929688,-0.0016057029133662581,0.0015707963611930609,0.0010646508308127522
1702338786473011200,112.48901123046875,0.0005061454721726477,0.002146754879504442,0.0011519172694534063
1702338786572275500,112.588275390625,-0.001518436474725604,0.0006632251315750182,0.0009075712296180427
1702338786671538000,112.68753784179688,-0.0015707963611930609,0.0008726646192371845,-0.0005235987482592463
1702338786770802000,112.78680200195312,-0.0005759586347267032,0.0015707963611930609,0.0009250245057046413
1702338786870064400,112.886064453125,-0.0018325956771150231,0.0015533430268988013,0.0003316125657875091
1702338786969328400,112.98532836914063,-0.00027925267932005227,0.0014660765882581472,0.000052359879191499203
1702338787068591000,113.08459106445312,-0.0011868239380419254,0.0013788101496174932,0.0005410520825535059
1702338787167855000,113.18385522460937,-0.00022689280740451068,0.00013962633966002613,-0.00043633230961859226
1702338787267117600,113.28311767578126,-0.0013613568153232336,0.0010995573829859495,0.00045378561480902135
1702338787366380000,113.38238012695312,-0.0011519172694534063,0.0018500490114092827,0.0005235987482592463
1702338787465644000,113.48164404296875,-0.0002617993741296232,0.0017976891249418259,0.0007330382941290736
1702338787564906500,113.58090649414062,-0.0017278759041801095,0.0009773843921720982,0.00029670598451048136
1702338787664170800,113.68017065429687,0.00008726646046852693,0.0015358896926045418,-0.00029670598451048136
1702338787763433200,113.77943310546875,-0.0019373154500499368,0.002687806962057948,0.0005585053586401045
1702338787862697200,113.878697265625,-0.0007853981805965304,0.00251327408477664,0.0002617993741296232
1702338787961959700,113.97795971679687,-0.001745329238474369,0.0013613568153232336,0.0005410520825535059
1702338788061222100,114.07722216796876,-0.0009773843921720982,0.0008028514566831291,0.00024434609804302454
1702338788160486400,114.176486328125,-0.0019024088978767395,0.0025830871891230345,0.00143117003608495
1702338788259750400,114.27575048828125,-0.00022689280740451068,0.0006806784076616168,0.00013962633966002613
1702338788359012900,114.37501293945313,-0.001117010717280209,0.0024260077625513077,0.001117010717280209
