time,seconds_elapsed,z,y,x
1702338674082382000,0.098382080078125,8.147602081298828,3.3693408966064453,-1.7308738231658936
1702338674205469700,0.2214697265625,9.235566139221191,1.4841560125350952,-2.7524988651275635
1702338674304732200,0.320732177734375,1.7968676090240479,2.994638681411743,-1.8317270278930664
1702338674403996200,0.41999609375,14.964795112609863,3.7701494693756104,0.4974480867385864
1702338674503258600,0.519258544921875,8.240372657775879,4.227183818817139,1.9376658201217651
1702338674602523000,0.61852294921875,9.782028198242188,4.107549667358398,1.4900074005126953
1702338674701785300,0.717785400390625,8.723637580871582,4.802002429962158,1.9577099084854126
1702338674801047800,0.8170478515625,10.084224700927734,4.30606746673584,1.5749537944793701
1702338674900311800,0.916311767578125,9.233650207519531,3.737607479095459,2.7411599159240723
1702338674999574300,1.01557421875,9.114553451538086,4.300905704498291,1.8900880813598633
1702338675098838500,1.114838623046875,3.7323594093322754,7.262983322143555,-1.6788333654403687
1702338675198101000,1.21410107421875,5.96750020980835,5.92514181137085,1.12575364112854
1702338675297365000,1.313364990234375,6.975516319274902,3.9506242275238037,3.2932820320129395
1702338675396627500,1.41262744140625,8.626663208007812,4.498695373535156,4.755640983581543
1702338675495891500,1.511891357421875,4.623461723327637,3.6146605014801025,0.2558539807796478
1702338675595154000,1.61115380859375,9.375473976135254,2.5819644927978516,3.5573816299438477
1702338675694418200,1.710418212890625,11.4879732131958,0.8005635738372803,2.625347375869751
1702338675793680600,1.8096806640625,13.822454452514648,1.290398120880127,1.0337587594985962
1702338675892944600,1.908944580078125,11.988036155700684,0.8991376161575317,2.8999335765838623
1702338675992207000,2.00820703125,7.635157108306885,-0.1285877823829651,1.4761786460876465
1702338676091471000,2.10747119140625,8.541324615478516,-1.2714073657989502,3.4594106674194336
1702338676190733800,2.20673388671875,8.970259666442871,-0.6204142570495605,4.4618916511535645
1702338676289996300,2.305996337890625,9.682879447937012,0.08911219239234924,2.769392251968384
1702338676389260300,2.40526025390625,8.242287635803223,1.2599151134490967,1.8346959352493286
1702338676488522800,2.504522705078125,9.788674354553223,-0.17117583751678467,1.057375192642212
1702338676587786800,2.603786865234375,10.477659225463867,0.39214152097702026,0.5752884149551392
1702338676687049500,2.703049560546875,10.065655708312988,0.2845365107059479,0.1809346228837967
1702338676786313500,2.8023134765625,10.08377456665039,0.31520146131515503,0.13376884162425995
1702338676885576000,2.901575927734375,9.814847946166992,0.26414749026298523,0.12831005454063416
1702338676984840000,3.00083984375,9.772432327270508,0.2947741150856018,0.12362699955701828
1702338677084100900,3.100100830078125,9.791662216186523,0.2920638620853424,0.11260409653186798
1702338677183366700,3.19936669921875,9.786231994628906,0.27717193961143494,0.09648633003234863
1702338677282629000,3.298629150390625,9.781156539916992,0.2765207290649414,0.10329543799161911
1702338677381893000,3.39789306640625,9.770048141479492,0.28975585103034973,0.11035354435443878
1702338677481155600,3.497155517578125,9.777288436889648,0.26696306467056274,0.09592129290103912
1702338677580418000,3.59641796875,9.789709091186523,0.2843162417411804,0.10791146010160446
1702338677679680500,3.695680419921875,9.776540756225586,0.2765973210334778,0.10491392016410828
1702338677778944800,3.79494482421875,9.795022964477539,0.28200823068618774,0.11073661595582962
1702338677878208800,3.894208740234375,9.790149688720703,0.27229732275009155,0.1149408370256424
1702338677977471200,3.99347119140625,9.785369873046875,0.28492915630340576,0.09445604681968689
1702338678076735200,4.0927353515625,9.76974105834961,0.29211175441741943,0.09988608956336975
1702338678175997700,4.191997802734375,9.784355163574219,0.2616192102432251,0.08648814260959625
1702338678275260400,4.291260498046875,9.789689064025879,0.2865859270095825,0.10205045342445374
1702338678374524400,4.3905244140625,9.777527809143066,0.27575457096099854,0.10850521922111511
1702338678473788400,4.489788330078125,9.761630058288574,0.2774305045604706,0.10174399614334106
1702338678573051000,4.58905078125,9.781950950622559,0.2814336121082306,0.10992259532213211
1702338678672313300,4.688313232421875,9.795234680175781,0.2770857512950897,0.10729854553937912
1702338678771575800,4.787575927734375,9.780793190002441,0.2615617513656616,0.11715307831764221
1702338678870840000,4.886840087890625,9.77192497253418,0.27084168791770935,0.09501149505376816
1702338678970104000,4.98610400390625,9.769636154174805,0.2868732511997223,0.10493307560682297
1702338679069366500,5.085366455078125,9.785543441772461,0.28100264072418213,0.11061212420463562
1702338679168629000,5.18462890625,9.771014213562012,0.2771432101726532,0.09834422916173935
1702338679267893000,5.28389306640625,9.757081031799316,0.28534096479415894,0.09109459072351456
1702338679367155700,5.38315576171875,9.75822925567627,0.2745383381843567,0.1081891879439354
1702338679466419700,5.482419677734375,9.765077590942383,0.2864806056022644,0.10104489326477051
1702338679565682200,5.58168212890625,9.786260604858398,0.2766452431678772,0.11347558349370956
1702338679664944600,5.680944580078125,9.784566879272461,0.27563005685806274,0.10480856895446777
1702338679764208600,5.780208740234375,9.77993106842041,0.2766643762588501,0.0939580500125885
1702338679863471000,5.87947119140625,9.77076530456543,0.26621606945991516,0.11413638293743134
1702338679962735400,5.9787353515625,9.787870407104492,0.2683708369731903,0.10412862151861191
1702338680061997800,6.077997802734375,9.769577980041504,0.28113675117492676,0.10902237147092819
1702338680161261800,6.17726171875,9.768295288085938,0.2851398289203644,0.09872730076313019
1702338680260524300,6.276524169921875,9.764933586120605,0.2778902053833008,0.1050863042473793
1702338680359788500,6.37578857421875,9.75850772857666,0.269855260848999,0.10188765078783035
1702338680459051000,6.475051025390625,9.774596214294434,0.2793937623500824,0.10199299454689026
1702338680558315000,6.57431494140625,9.770536422729492,0.26715460419654846,0.09959879517555237
1702338680657577500,6.673577392578125,9.782037734985352,0.27763161063194275,0.100815050303936
1702338680756841500,6.772841552734375,9.779327392578125,0.2836267054080963,0.1040424257516861
1702338680856104000,6.87210400390625,9.764339447021484,0.2673078179359436,0.11503660678863525
1702338680955368200,6.9713681640625,9.778829574584961,0.282688170671463,0.09310571104288101
1702338681054630700,7.070630615234375,9.776272773742676,0.27525660395622253,0.10688674449920654
1702338681153893000,7.16989306640625,9.775803565979004,0.2873903810977936,0.110439732670784
1702338681253157000,7.2691572265625,9.782353401184082,0.2789340913295746,0.1084190309047699
1702338681352419600,7.368419677734375,9.771656036376953,0.288692831993103,0.10280702263116837
1702338681451683800,7.467683837890625,9.781338691711426,0.2874191403388977,0.09582553058862686
1702338681550946300,7.5669462890625,9.774012565612793,0.2826307415962219,0.10434888303279877
1702338681650210300,7.666210205078125,9.782670021057129,0.27630046010017395,0.09336429089307785
1702338681749472800,7.76547265625,9.77250862121582,0.285015344619751,0.10644620656967163
1702338681848736800,7.86473681640625,9.786710739135742,0.2670780122280121,0.11357135325670242
1702338681947999200,7.963999267578125,9.763343811035156,0.2776029109954834,0.09670659899711609
1702338682047263500,8.063263427734375,9.765144348144531,0.28853002190589905,0.09861238300800323
1702338682146526000,8.16252587890625,9.776483535766602,0.27561092376708984,0.09325893968343735
1702338682245790000,8.2617900390625,9.777230262756348,0.27546727657318115,0.09719501435756683
1702338682345052400,8.361052490234375,9.77927017211914,0.2858964204788208,0.10672393441200256
1702338682444315000,8.46031494140625,9.771197319030762,0.28950685262680054,0.10204087942838669
1702338682543579100,8.5595791015625,9.774941444396973,0.2889418303966522,0.10243352502584457
1702338682642841600,8.658841552734375,9.781779289245605,0.29111579060554504,0.11164641380310059
1702338682742105600,8.758105712890625,9.786423683166504,0.27561092376708984,0.10964486002922058
1702338682841368000,8.8573681640625,9.77414608001709,0.2830425202846527,0.09786538779735565
1702338682940632000,8.956632080078125,9.77699089050293,0.2880224585533142,0.09793242812156677
1702338683039894800,9.055894775390625,9.782086372375488,0.27792850136756897,0.1009586974978447
1702338683139158800,9.15515869140625,9.776808738708496,0.27834030985832214,0.10183975845575333
1702338683238421200,9.254421142578124,9.77392578125,0.2805238366127014,0.10181103646755219
1702338683337685200,9.353685302734375,9.769386291503906,0.2870839238166809,0.10516291856765747
1702338683436947700,9.45294775390625,9.775429725646973,0.26350581645965576,0.11280520260334015
1702338683536210200,9.552210205078126,9.767356872558594,0.2763579189777374,0.10172484070062637
1702338683635474400,9.651474365234375,9.774184226989746,0.2786276340484619,0.10636001825332642
1702338683734737000,9.75073681640625,9.774567604064941,0.2781008780002594,0.10550767928361893
1702338683833999400,9.849999267578125,9.76596736907959,0.27811047434806824,0.08857589215040207
1702338683933263400,9.949263427734374,9.77802562713623,0.2829754948616028,0.09663955867290497
1702338684032527400,10.04852734375,9.76009750366211,0.2841630280017853,0.09232041984796524
1702338684131790000,10.1477900390625,9.771397590637207,0.29221710562705994,0.09344090521335602
1702338684231054000,10.24705419921875,9.760087966918945,0.27750712633132935,0.1105450838804245
1702338684330316500,10.346316650390625,9.776655197143555,0.2786276340484619,0.1101907417178154
1702338684429580500,10.44558056640625,9.770113945007324,0.26906996965408325,0.0956052616238594
1702338684528843000,10.544843017578126,9.775975227355957,0.28414386510849,0.10371682047843933
1702338684628107300,10.644107177734375,9.773130416870117,0.2653445601463318,0.09292376041412354
1702338684727369700,10.74336962890625,9.770325660705566,0.2778327465057373,0.09248322248458862
1702338684826632200,10.842632080078126,9.763381958007812,0.2739349603652954,0.09242576360702515
1702338684925894700,10.941894775390624,9.777498245239258,0.27117684483528137,0.09473377466201782
1702338685025158700,11.04115869140625,9.78174114227295,0.2668673098087311,0.10636959224939346
1702338685124423000,11.1404228515625,9.76744270324707,0.284689724445343,0.09603621810674667
1702338685223685400,11.239685302734374,9.773064613342285,0.29032090306282043,0.0950402319431305
1702338685322949400,11.338949462890625,9.775429725646973,0.28175923228263855,0.11242213100194931
1702338685422211800,11.4382119140625,9.774290084838867,0.2783307433128357,0.12047622352838516
1702338685521475800,11.537475830078124,9.780094146728516,0.27132052183151245,0.09627564251422882
1702338685620738300,11.63673828125,9.773351669311523,0.28030356764793396,0.11072704195976257
1702338685720002600,11.73600244140625,9.771349906921387,0.28767770528793335,0.10657070577144623
1702338685819265000,11.83526513671875,9.775439262390137,0.27169400453567505,0.10964486002922058
1702338685918527500,11.934527587890624,9.779796600341797,0.287064790725708,0.10618763417005539
1702338686017791500,12.03379150390625,9.787850379943848,0.26396551728248596,0.09255026280879974
1702338686117054000,12.133053955078125,9.766715049743652,0.2692040503025055,0.10381258279085159
1702338686216316400,12.23231640625,9.771637916564941,0.27031493186950684,0.09584467858076096
1702338686315580700,12.33158056640625,9.787027359008789,0.297944039106369,0.11023862659931183
1702338686414843100,12.430843017578125,9.760173797607422,0.2785126864910126,0.10230902582406998
1702338686514107100,12.530107177734376,9.771522521972656,0.2870360314846039,0.10145668685436249
1702338686613369600,12.62936962890625,9.778005599975586,0.285436749458313,0.11222102493047714
1702338686712633900,12.7286337890625,9.76887035369873,0.28399062156677246,0.09912952780723572
1702338686811896300,12.827896240234375,9.768831253051758,0.28090688586235046,0.09796115756034851
1702338686911160300,12.927160400390624,9.774222373962402,0.27073633670806885,0.08577945828437805
1702338687010424300,13.02642431640625,9.775678634643555,0.2709566056728363,0.09103712439537048
1702338687109686800,13.125686767578125,9.777517318725586,0.27357107400894165,0.10157161206007004
1702338687208951000,13.224950927734374,9.787659645080566,0.2788957953453064,0.09930191189050674
1702338687308213500,13.324213623046875,9.774998664855957,0.2800832688808441,0.09661082178354263
1702338687407477500,13.4234775390625,9.746967315673828,0.28269776701927185,0.10295067727565765
1702338687506740000,13.522739990234374,9.773983001708984,0.27950870990753174,0.11096645891666412
1702338687606002400,13.62200244140625,9.781405448913574,0.2675759792327881,0.09075939655303955
1702338687705266400,13.721266357421875,9.767538070678711,0.29150843620300293,0.092521533370018
1702338687804529200,13.820529052734376,9.77502727508545,0.268935889005661,0.1106504276394844
1702338687903791600,13.91979150390625,9.768898010253906,0.28617411851882935,0.10145668685436249
1702338688003055600,14.0190556640625,9.778753280639648,0.26857197284698486,0.09577763825654984
1702338688102319600,14.118319580078126,9.774041175842285,0.2726037800312042,0.09951259940862656
1702338688201582000,14.21758203125,9.769290924072266,0.2781487703323364,0.08978256583213806
1702338688300844500,14.316844482421875,9.7642822265625,0.27564921975135803,0.0991678312420845
1702338688400107300,14.416107177734375,9.785505294799805,0.26784414052963257,0.09394846856594086
1702338688499371300,14.515371337890626,9.770191192626953,0.2822668254375458,0.1116081103682518
1702338688598633700,14.6146337890625,9.758785247802734,0.268935889005661,0.10011593997478485
1702338688697897700,14.713897705078125,9.782018661499023,0.2806483209133148,0.10892659425735474
1702338688797160200,14.81316015625,9.772987365722656,0.2787521183490753,0.09754935652017593
1702338688896424400,14.912424560546874,9.78054428100586,0.2799971103668213,0.10423396527767181
1702338688995687000,15.01168701171875,9.773245811462402,0.27777525782585144,0.11459606885910034
1702338689094951000,15.110950927734375,9.775545120239258,0.2839427590370178,0.10138007253408432
1702338689194213400,15.21021337890625,9.77784252166748,0.27467238903045654,0.10107361525297165
1702338689293477400,15.309477294921875,9.77090072631836,0.27990132570266724,0.10386046767234802
1702338689392740000,15.408739990234375,9.792993545532227,0.27279534935951233,0.1062929779291153
1702338689492002600,15.50800244140625,9.780926704406738,0.27598440647125244,0.10044155269861221
1702338689591266600,15.6072666015625,9.775956153869629,0.281768798828125,0.095854252576828
1702338689690530600,15.706530517578125,9.780447959899902,0.27790936827659607,0.10036493837833405
1702338689789793000,15.80579296875,9.757119178771973,0.26394638419151306,0.1092522144317627
1702338689889057300,15.905057373046875,9.777862548828125,0.27965235710144043,0.09676405042409897
1702338689988319700,16.00431982421875,9.776712417602539,0.2742510139942169,0.09362286329269409
1702338690087583700,16.103583740234374,9.775640487670898,0.28355011343955994,0.09144892543554306
1702338690186846200,16.20284619140625,9.774787902832031,0.27667394280433655,0.09111373871564865
1702338690286110200,16.302110107421875,9.76456069946289,0.27807217836380005,0.10015424340963364
1702338690385372700,16.40137255859375,9.755806922912598,0.2752661406993866,0.09683109074831009
1702338690484635400,16.500635498046876,9.784575462341309,0.269433856010437,0.10266336798667908
1702338690583899400,16.5998994140625,9.784863471984863,0.28223806619644165,0.10623551905155182
1702338690683161900,16.699161865234377,9.776799201965332,0.2653254270553589,0.10626424849033356
1702338690782425900,16.79842578125,9.78152084350586,0.2723739743232727,0.08699571341276169
1702338690881688300,16.897688232421874,9.760682106018066,0.2706405520439148,0.10844776034355164
1702338690980952600,16.99695263671875,9.77856159210205,0.2816060185432434,0.10217495262622833
1702338691080215000,17.096215087890624,9.765316009521484,0.27630046010017395,0.10522037744522095
1702338691179477500,17.1954775390625,9.774903297424316,0.28509193658828735,0.10053731501102448
1702338691278741500,17.294741455078125,9.77169418334961,0.2805621325969696,0.0953754186630249
1702338691378004000,17.39400390625,9.76553726196289,0.28094518184661865,0.09496361762285233
1702338691477268200,17.493268310546874,9.770727157592773,0.28207525610923767,0.10417650640010834
1702338691576530700,17.59253076171875,9.76749038696289,0.27477774024009705,0.10690589249134064
1702338691675794700,17.691794677734375,9.771570205688477,0.28163474798202515,0.105229951441288
1702338691775057200,17.79105712890625,9.782210350036621,0.2689071595668793,0.10597694665193558
1702338691874321200,17.890321044921876,9.757482528686523,0.27584075927734375,0.10888829082250595
1702338691973583600,17.98958349609375,9.770133972167969,0.28055256605148315,0.09763554483652115
1702338692072846300,18.088846435546873,9.75894832611084,0.28636568784713745,0.08855672925710678
1702338692172110300,18.1881103515625,9.785140991210938,0.27592697739601135,0.09352709352970123
1702338692271372800,18.287372802734374,9.771110534667969,0.27225902676582336,0.10970232635736465
1702338692370635300,18.38663525390625,9.76325798034668,0.28698816895484924,0.11072704195976257
1702338692469899300,18.485899169921876,9.775583267211914,0.283607542514801,0.10576625168323517
1702338692569161700,18.58516162109375,9.761878967285156,0.2871701419353485,0.09685025364160538
1702338692668426000,18.684426025390625,9.767643928527832,0.271971732378006,0.09992440044879913
1702338692767690000,18.78368994140625,9.76646614074707,0.28796499967575073,0.11200075596570969
1702338692866952400,18.882952392578126,9.771590232849121,0.28932490944862366,0.12101252377033234
1702338692966215000,18.98221484375,9.76112174987793,0.27467238903045654,0.11495999246835709
1702338693065479200,19.081479248046875,9.779519081115723,0.27925968170166016,0.1028357520699501
1702338693164743200,19.1807431640625,9.75571060180664,0.2681027054786682,0.09341216832399368
1702338693264005600,19.280005615234376,9.75534725189209,0.2657851278781891,0.10765288770198822
1702338693363268000,19.37926806640625,9.776196479797363,0.27621427178382874,0.09611283242702484
1702338693462532000,19.478531982421874,9.776846885681152,0.2692232131958008,0.10861056298017502
1702338693561794600,19.577794677734374,9.757444381713867,0.2902921736240387,0.10532572120428085
1702338693661058800,19.677058837890623,9.765939712524414,0.2685815393924713,0.09669702500104904
1702338693760321300,19.7763212890625,9.768179893493652,0.2853505313396454,0.10346782207489014
1702338693859585300,19.875585205078124,9.783226013183594,0.2855229079723358,0.11024820059537888
1702338693958847700,19.97484765625,9.78174114227295,0.2817975580692291,0.10040324181318283
1702338694058110200,20.074110107421873,9.772441864013672,0.27950870990753174,0.10928094387054443
1702338694157374500,20.17337451171875,9.768716812133789,0.2858102023601532,0.11078450083732605
1702338694256637000,20.272636962890626,9.764205932617188,0.267805814743042,0.09911994636058807
1702338694355901000,20.37190087890625,9.776981353759766,0.27855098247528076,0.10620678961277008
1702338694455165000,20.4711650390625,9.776578903198242,0.2617820203304291,0.10555556416511536
1702338694554427400,20.570427490234376,9.756447792053223,0.27883830666542053,0.10351569950580597
1702338694653689900,20.66968994140625,9.77574634552002,0.27555346488952637,0.09181284159421921
1702338694752952600,20.76895263671875,9.766830444335938,0.2778327465057373,0.09917741268873215
1702338694852216600,20.868216552734374,9.773313522338867,0.2901868224143982,0.10190679877996445
1702338694951480600,20.96748046875,9.76876449584961,0.2782062292098999,0.11607089638710022
1702338695050743000,21.066742919921875,9.765057563781738,0.28351178765296936,0.09497319161891937
1702338695150005500,21.166005615234376,9.76253890991211,0.27755501866340637,0.09423577785491943
1702338695249271300,21.265271240234377,9.7752103805542,0.2769133746623993,0.11403103917837143
1702338695348532200,21.3645322265625,9.776684761047363,0.2881661057472229,0.10365935415029526
1702338695447796200,21.463796142578126,9.772058486938477,0.28100264072418213,0.09957005828619003
1702338695547058700,21.56305859375,9.773811340332031,0.2713684141635895,0.1034390851855278
1702338695646322700,21.66232275390625,9.773619651794434,0.2763962149620056,0.1139640063047409
1702338695745585400,21.76158544921875,9.769636154174805,0.27608975768089294,0.10939586907625198
1702338695844849400,21.860849365234376,9.773275375366211,0.2758982181549072,0.09639056026935577
1702338695944111900,21.96011181640625,9.780035972595215,0.2773060202598572,0.09747274219989777
1702338696043375900,22.0593759765625,9.767997741699219,0.2772102355957031,0.1013130396604538
1702338696142638300,22.158638427734374,9.78156852722168,0.2803993225097656,0.11407892405986786
1702338696241902600,22.257902587890626,9.763449668884277,0.27899155020713806,0.10300813615322113
1702338696341166600,22.35716650390625,9.776214599609375,0.2781679332256317,0.10681013017892838
1702338696440427500,22.456427490234375,9.776569366455078,0.2809547781944275,0.09341216832399368
1702338696539691500,22.55569140625,9.778091430664062,0.2871605455875397,0.11311166733503342
1702338696638955500,22.65495556640625,9.653938293457031,0.33033278584480286,-0.00649307481944561
1702338696738218000,22.754218017578125,3.8906736373901367,0.48945143818855286,0.27123430371284485
1702338696837480700,22.853480712890626,9.834470748901367,0.30178433656692505,0.18173906207084656
1702338696936744700,22.95274462890625,8.832085609436035,0.40951383113861084,-0.08869080990552902
1702338697036007200,23.052007080078123,10.207220077514648,0.18886421620845795,0.048563987016677856
1702338697135271200,23.151271240234376,9.260810852050781,0.32524749636650085,0.34220802783966064
1702338697234533600,23.25053369140625,9.823285102844238,0.2667810916900635,0.15408124029636383
1702338697333798000,23.3497978515625,9.77294921875,0.2612936198711395,0.12053368985652924
1702338697433060400,23.449060302734374,9.778829574584961,0.2733316421508789,0.12847286462783813
1702338697532322800,23.54832275390625,9.759244918823242,0.297685444355011,0.14387238025665283
1702338697631586800,23.6475869140625,9.771187782287598,0.29138392210006714,0.127486452460289
1702338697730849300,23.746849365234375,9.780332565307617,0.2657468318939209,0.1055651381611824
1702338697830113500,23.846113525390624,9.766791343688965,0.27146416902542114,0.13641203939914703
1702338697929376000,23.9453759765625,9.773581504821777,0.29907408356666565,0.13515746593475342
1702338698028640000,24.044639892578125,9.771024703979492,0.28817570209503174,0.11406934261322021
1702338698127902500,24.14390234375,9.776904106140137,0.2617054283618927,0.11158894747495651
1702338698227166500,24.24316650390625,9.773514747619629,0.2662926912307739,0.11667423695325851
1702338698326429000,24.342428955078127,9.77409839630127,0.27780401706695557,0.12336842715740204
1702338698425693200,24.441693115234376,9.772441864013672,0.27486392855644226,0.1179000735282898
1702338698524955600,24.54095556640625,9.775094985961914,0.2634771168231964,0.11303505301475525
1702338698624218000,24.640218017578125,9.778982162475586,0.27792850136756897,0.12549448013305664
1702338698723482000,24.739482177734374,9.790216445922852,0.28002581000328064,0.12080184370279312
1702338698822744600,24.83874462890625,9.770536422729492,0.26819849014282227,0.10985555499792099
1702338698922008800,24.9380087890625,9.77802562713623,0.2645209729671478,0.11751700192689896
1702338699021271300,25.037271240234375,9.777545928955078,0.2572043240070343,0.12258312851190567
1702338699120535300,25.136535400390624,9.744391441345215,0.2766069173812866,0.12342588603496552
1702338699219797800,25.2357978515625,9.779470443725586,0.26182031631469727,0.13368265330791473
1702338699319061800,25.335061767578125,9.779422760009766,0.2763579189777374,0.10913728922605515
1702338699418324500,25.434324462890626,9.771608352661133,0.27711448073387146,0.11120587587356567
1702338699517588500,25.53358837890625,9.75436019897461,0.2840768098831177,0.11262324452400208
1702338699616851000,25.632850830078127,9.775822639465332,0.2681027054786682,0.10986512899398804
1702338699716115000,25.732114990234376,9.766217231750488,0.2730155885219574,0.11071746051311493
1702338699815377400,25.83137744140625,9.769349098205566,0.2730730473995209,0.12424948811531067
1702338699914641700,25.9306416015625,9.774433135986328,0.2679399251937866,0.11917378008365631
1702338700013904100,26.029904052734373,9.766427993774414,0.26954880356788635,0.10634086281061172
1702338700113166600,26.12916650390625,9.774903297424316,0.26802608370780945,0.11472056806087494
1702338700212429000,26.228428955078126,9.759167671203613,0.2662256360054016,0.11713392287492752
1702338700311693000,26.327693115234375,9.768284797668457,0.2712247371673584,0.09658209979534149
1702338700410957000,26.42695703125,9.777268409729004,0.2667810916900635,0.11911632865667343
1702338700510219800,26.5262197265625,9.775726318359375,0.2757737338542938,0.11389696598052979
1702338700609482200,26.625482177734376,9.777881622314453,0.2834543287754059,0.1203804612159729
1702338700708746200,26.724746337890625,9.785245895385742,0.2770857512950897,0.12056242674589157
1702338700808008700,26.8240087890625,9.779126167297363,0.26779624819755554,0.1296316534280777
1702338700907272700,26.923272705078126,9.774596214294434,0.28371289372444153,0.10658986121416092
1702338701006537000,27.022536865234375,9.781558990478516,0.2548483908176422,0.11450030654668808
1702338701105799400,27.12179931640625,9.779519081115723,0.2751224935054779,0.12283211946487427
1702338701205063400,27.2210634765625,9.776962280273438,0.2668098509311676,0.12441229820251465
1702338701304324400,27.320324462890625,9.763036727905273,0.2639080584049225,0.11401188373565674
1702338701403588400,27.41958837890625,9.787352561950684,0.2802269160747528,0.12016019225120544
1702338701502850800,27.518850830078126,9.766188621520996,0.27561092376708984,0.09543287754058838
1702338701602115000,27.618114990234375,9.771081924438477,0.27934589982032776,0.12450806796550751
1702338701701377500,27.71737744140625,9.775104522705078,0.2793745994567871,0.1058141440153122
1702338701800641500,27.8166416015625,9.782028198242188,0.27988216280937195,0.11601343750953674
1702338701899905500,27.915905517578125,9.778552055358887,0.27204835414886475,0.10742304474115372
1702338701999168000,28.01516796875,9.755970001220703,0.26286420226097107,0.1222958192229271
1702338702098430700,28.1144306640625,9.786720275878906,0.2883289158344269,0.11845552176237106
1702338702197694700,28.21369482421875,9.772719383239746,0.27633875608444214,0.11774684488773346
1702338702296958700,28.312958740234375,9.777948379516602,0.2639750838279724,0.09714712202548981
1702338702396221200,28.41222119140625,9.794966697692871,0.2672695219516754,0.11189541220664978
1702338702495483600,28.511483642578124,9.777000427246094,0.28036102652549744,0.10273998230695724
1702338702594746000,28.61074609375,9.781195640563965,0.2762429714202881,0.10138965398073196
1702338702694010400,28.71001025390625,9.784805297851562,0.2751608192920685,0.11631989479064941
1702338702793272800,28.80927294921875,9.791337013244629,0.27284324169158936,0.10952036082744598
1702338702892536800,28.908536865234375,9.777200698852539,0.2723548114299774,0.10910855978727341
1702338702991799300,29.00779931640625,9.768621444702148,0.2733699679374695,0.10568006336688995
1702338703091063300,29.107063232421876,9.783244132995605,0.2705830931663513,0.11473014950752258
1702338703190326000,29.206325927734376,9.776483535766602,0.2803897261619568,0.10768161714076996
1702338703289590000,29.305590087890625,9.792323112487793,0.2641379237174988,0.11288182437419891
1702338703388852500,29.4048525390625,9.78183650970459,0.28663381934165955,0.11495999246835709
1702338703488116500,29.504116455078126,9.771484375,0.264932781457901,0.12797486782073975
1702338703587379000,29.60337890625,9.768745422363281,0.27071717381477356,0.1190875917673111
1702338703686643200,29.702643310546875,9.790637969970703,0.27515125274658203,0.1120677962899208
1702338703785905700,29.80190576171875,9.763927459716797,0.27899155020713806,0.1271129548549652
1702338703885168000,29.901168212890624,9.774624824523926,0.2763962149620056,0.11291055381298065
1702338703984432000,30.00043212890625,9.773754119873047,0.2733699679374695,0.10766246169805527
1702338704083694600,30.099694580078125,9.777786254882812,0.26673322916030884,0.11519940942525864
1702338704182958800,30.198958740234374,9.780332565307617,0.28719884157180786,0.1142129972577095
1702338704282222800,30.298222900390623,9.768582344055176,0.28751489520072937,0.09968498349189758
1702338704381485300,30.3974853515625,9.766925811767578,0.2755630612373352,0.11061212420463562
1702338704480747800,30.496747802734376,9.767605781555176,0.2676621675491333,0.11970050632953644
1702338704580011800,30.59601171875,9.783186912536621,0.26680025458335876,0.1082945317029953
1702338704679274200,30.695274169921873,9.784096717834473,0.2628737688064575,0.11679873615503311
1702338704778538500,30.79453857421875,9.783885955810547,0.27415522933006287,0.13062764704227448
1702338704877801000,30.893801025390626,9.777095794677734,0.27296772599220276,0.12623189389705658
1702338704977065000,30.99306494140625,9.757779121398926,0.26744189858436584,0.11382035166025162
1702338705076327400,31.092327392578124,9.776262283325195,0.2769995629787445,0.10640789568424225
1702338705175590000,31.19158984375,9.7724609375,0.27300605177879333,0.1180054172873497
1702338705274854100,31.290854248046877,9.767356872558594,0.27769866585731506,0.09816227108240128
1702338705374116600,31.39011669921875,9.779145240783691,0.2579895853996277,0.12145306169986725
1702338705473380600,31.489380615234374,9.766254425048828,0.28025567531585693,0.10803595930337906
1702338705572643000,31.58864306640625,9.777460098266602,0.2794512212276459,0.11556332558393478
1702338705671907000,31.687906982421875,9.77758502960205,0.2674802243709564,0.12282254546880722
1702338705771169800,31.787169677734376,9.778149604797363,0.28344476222991943,0.10823706537485123
1702338705870433800,31.886433837890625,9.79187297821045,0.27590781450271606,0.11747869104146957
1702338705969696300,31.9856962890625,9.777095794677734,0.2840672433376312,0.11219228804111481
1702338706068960300,32.084960205078126,9.765929222106934,0.2635154128074646,0.11188583076000214
1702338706168222700,32.18422265625,9.767959594726562,0.28071537613868713,0.12134771794080734
1702338706267485200,32.283485107421875,9.770506858825684,0.27213454246520996,0.1047319546341896
1702338706366748000,32.38274780273437,9.778753280639648,0.2708129584789276,0.10528741776943207
1702338706466012000,32.482011962890624,9.778091430664062,0.26334303617477417,0.1261744350194931
1702338706565276000,32.58127587890625,9.769492149353027,0.2741073668003082,0.11736376583576202
1702338706664538400,32.68053833007812,9.767778396606445,0.274231880903244,0.11188583076000214
1702338706763802400,32.77980224609375,9.77316951751709,0.27265170216560364,0.11478760838508606
1702338706863065000,32.87906518554688,9.772289276123047,0.2819986641407013,0.10344866663217545
1702338706962329000,32.9783291015625,9.787496566772461,0.28057172894477844,0.1242973804473877
1702338707061591600,33.077591552734376,9.78330135345459,0.27982470393180847,0.11862790584564209
1702338707160855600,33.17685546875,9.776637077331543,0.2832723557949066,0.11834059655666351
1702338707260118000,33.27611791992187,9.780658721923828,0.2651243209838867,0.10589075833559036
1702338707359382300,33.37538232421875,9.77304458618164,0.27139711380004883,0.1301296502351761
1702338707458644700,33.47464477539062,9.778992652893066,0.2718472182750702,0.11379161477088928
1702338707557908700,33.57390869140625,9.78384780883789,0.2772485613822937,0.10634086281061172
1702338707657171200,33.67317114257813,9.7846040725708,0.2692040503025055,0.10705912113189697
1702338707756433700,33.77243359375,9.762635231018066,0.27638664841651917,0.11376288533210754
1702338707855696100,33.871696044921876,9.771321296691895,0.2765398919582367,0.11409807950258255
1702338707954960400,33.97096044921875,9.7838773727417,0.2730155885219574,0.1209838017821312
1702338708054224400,34.070224365234374,9.767538070678711,0.2627013921737671,0.11745953559875488
1702338708153486800,34.16948681640625,9.780524253845215,0.2603742480278015,0.10018297284841537
1702338708252750800,34.26875073242188,9.789631843566895,0.2688114047050476,0.10483730584383011
1702338708352013300,34.368013427734375,9.780007362365723,0.2769133746623993,0.11602301895618439
1702338708451276000,34.46727612304687,9.774375915527344,0.2821901738643646,0.11733503639698029
1702338708550540000,34.5665400390625,9.772259712219238,0.2697690725326538,0.11317870020866394
1702338708649802500,34.66580249023438,9.789536476135254,0.27546727657318115,0.11109095811843872
1702338708749066500,34.76506640625,9.775860786437988,0.2674323320388794,0.1177564188838005
1702338708848330500,34.86433056640625,9.78428840637207,0.27669310569763184,0.11468225717544556
1702338708947591400,34.96359130859375,9.775056838989258,0.28765854239463806,0.10390835255384445
1702338709046855700,35.062855712890624,9.779519081115723,0.27063098549842834,0.122276671230793
1702338709146118100,35.1621181640625,9.778934478759766,0.2592824697494507,0.10303686559200287
1702338709245382100,35.26138208007813,9.776119232177734,0.27309221029281616,0.10762415081262589
1702338709344644600,35.36064453125,9.769262313842773,0.27280494570732117,0.11510363966226578
1702338709443908600,35.45990869140625,9.78331184387207,0.2642911374568939,0.11323615908622742
1702338709543172900,35.5591728515625,9.785552978515625,0.2757641673088074,0.12728534638881683
1702338709642435300,35.658435302734375,9.786683082580566,0.27696123719215393,0.11563993990421295
1702338709741697800,35.75769775390625,9.783321380615234,0.2766069173812866,0.12191274762153625
1702338709840961800,35.8569619140625,9.77961540222168,0.27025747299194336,0.1298423409461975
1702338709940224300,35.95622436523438,9.772432327270508,0.2754768431186676,0.12160629034042358
1702338710039488500,36.05548852539062,9.773964881896973,0.2834830582141876,0.1231098473072052
1702338710138751000,36.1547509765625,9.786184310913086,0.2709949016571045,0.11226890236139297
1702338710238013400,36.25401342773438,9.77071762084961,0.27495014667510986,0.1097310483455658
1702338710337277400,36.35327734375,9.76989459991455,0.2734369933605194,0.13031160831451416
1702338710436541400,36.45254150390625,9.778532028198242,0.2674323320388794,0.11376288533210754
1702338710535804200,36.55180419921875,9.76695442199707,0.270018070936203,0.11761276423931122
1702338710635066600,36.651066650390625,9.781042098999023,0.27130135893821716,0.11616666615009308
1702338710734330600,36.75033056640625,9.778446197509766,0.27942249178886414,0.11245086789131165
1702338710833593000,36.84959301757812,9.781472206115723,0.2750363051891327,0.11995908617973328
1702338710932857000,36.948857177734375,9.776838302612305,0.27490225434303284,0.1164827048778534
1702338711032119600,37.04811962890625,9.781798362731934,0.2700851261615753,0.11360965669155121
1702338711131383800,37.1473837890625,9.783838272094727,0.28836721181869507,0.11638693511486053
1702338711230646300,37.24664624023438,9.771493911743164,0.2773922085762024,0.12308112531900406
1702338711329910300,37.34591015625,9.777680397033691,0.2699510157108307,0.1174212247133255
1702338711429172700,37.4451728515625,9.771465301513672,0.27178022265434265,0.12042834609746933
1702338711528436700,37.54443676757813,9.790617942810059,0.2837033271789551,0.11343728005886078
1702338711627699500,37.64369946289062,9.771703720092773,0.27592697739601135,0.12152967602014542
1702338711726962000,37.7429619140625,9.782909393310547,0.25948357582092285,0.11607089638710022
1702338711826226000,37.84222583007813,9.780428886413574,0.28723713755607605,0.11374373733997345
1702338711925488400,37.94148828125,9.767538070678711,0.27263253927230835,0.12305238842964172
1702338712024752400,38.04075244140625,9.784594535827637,0.26727911829948425,0.1234450414776802
1702338712124015000,38.14001513671875,9.776300430297852,0.26864859461784363,0.11915463209152222
1702338712223279000,38.239279052734375,9.781329154968262,0.27442339062690735,0.11983458697795868
1702338712322541600,38.33854150390625,9.794066429138184,0.26607242226600647,0.11897267401218414
1702338712421805600,38.4378056640625,9.786136627197266,0.2808111310005188,0.11499829590320587
1702338712521068000,38.537068115234376,9.78184700012207,0.2676909267902374,0.11759361624717712
1702338712620332300,38.63633227539062,9.771052360534668,0.26258644461631775,0.11156021803617477
1702338712719594800,38.7355947265625,9.772289276123047,0.2721632719039917,0.11537178605794907
1702338712818857200,38.83485717773438,9.77900218963623,0.27663564682006836,0.11273816972970963
1702338712918121200,38.93412133789062,9.767988204956055,0.2927151024341583,0.1183597594499588
1702338713017383700,39.0333837890625,9.777440071105957,0.2827456295490265,0.11873325705528259
1702338713116647700,39.13264770507813,9.783273696899414,0.26456886529922485,0.11409807950258255
1702338713215910400,39.231910400390625,9.782986640930176,0.28134745359420776,0.12426864355802536
1702338713315174400,39.33117431640625,9.764780044555664,0.2731688320636749,0.1099608987569809
1702338713414436900,39.43043676757812,9.770737648010254,0.2749117910861969,0.10341036319732666
1702338713513700900,39.529700927734375,9.769042015075684,0.28151023387908936,0.10924264043569565
1702338713612963300,39.62896337890625,9.780755043029785,0.27067887783050537,0.10206002742052078
1702338713712227600,39.7282275390625,9.785369873046875,0.2718759775161743,0.11948023736476898
1702338713811490000,39.827489990234376,9.779251098632812,0.26389849185943604,0.12180740386247635
1702338713910752500,39.92675244140625,9.786337852478027,0.2814527750015259,0.11764149367809296
1702338714010016500,40.0260166015625,9.768908500671387,0.27695170044898987,0.12907619774341583
1702338714109279000,40.12527905273438,9.776789665222168,0.27265170216560364,0.120734803378582
1702338714208543200,40.22454321289062,9.768352508544922,0.2758503556251526,0.11547713726758957
1702338714307805700,40.3238056640625,9.765900611877441,0.28540799021720886,0.12182655930519104
1702338714407069700,40.42306958007813,9.781903266906738,0.2773539125919342,0.11721053719520569
1702338714506332200,40.522332275390625,9.761083602905273,0.27631962299346924,0.11416511237621307
1702338714605596200,40.62159619140625,9.773064613342285,0.2665320932865143,0.11474929749965668
1702338714704858600,40.72085864257812,9.779547691345215,0.2672407925128937,0.11562079191207886
1702338714804123000,40.820122802734375,9.783263206481934,0.27840733528137207,0.12466129660606384
1702338714903385300,40.91938525390625,9.776626586914062,0.27642494440078735,0.1122114509344101
1702338715002649300,41.0186494140625,9.777087211608887,0.26869648694992065,0.11639650911092758
1702338715101911800,41.117911865234376,9.769598007202148,0.26660874485969543,0.1150461807847023
1702338715201175800,41.21717578125,9.770842552185059,0.26786327362060547,0.10904151946306229
1702338715300438500,41.3164384765625,9.775755882263184,0.2763291895389557,0.1087542176246643
1702338715399701000,41.41570092773438,9.781998634338379,0.2900814712047577,0.10369766503572464
1702338715498963500,41.51496337890625,9.776493072509766,0.28411510586738586,0.1118571013212204
1702338715598227500,41.6142275390625,9.78117561340332,0.27773696184158325,0.11336066573858261
1702338715697491500,41.71349145507813,9.7853422164917,0.27706658840179443,0.10571836680173874
1702338715796754000,41.81275390625,9.766887664794922,0.2656223177909851,0.1177755743265152
1702338715896018200,41.91201806640625,9.791787147521973,0.2720962166786194,0.11379161477088928
1702338715995280600,42.01128076171875,9.765057563781738,0.27302518486976624,0.09745357930660248
1702338716094544600,42.110544677734374,9.788578987121582,0.2816251516342163,0.11566866934299469
1702338716193807000,42.20980712890625,9.790828704833984,0.273053914308548,0.1156303659081459
1702338716293071000,42.30907104492187,9.792840957641602,0.27369555830955505,0.1130446270108223
1702338716392333800,42.408333740234376,9.77082347869873,0.28572404384613037,0.10370723903179169
1702338716491596300,42.50759619140625,9.778704643249512,0.2768558859825134,0.10451169312000275
1702338716590860300,42.6068603515625,9.774433135986328,0.27573540806770325,0.12028469145298004
1702338716690122800,42.70612280273438,9.770048141479492,0.2640804350376129,0.10601525008678436
1702338716789385200,42.80538525390625,9.77094841003418,0.2835884094238281,0.1125657856464386
1702338716888649500,42.9046494140625,9.785715103149414,0.283559650182724,0.10992259532213211
1702338716987912000,43.00391186523437,9.784144401550293,0.27086085081100464,0.11259452253580093
1702338717087176000,43.103176025390624,9.771034240722656,0.256428599357605,0.1195664256811142
1702338717186440000,43.20243994140625,9.773236274719238,0.27067887783050537,0.09753019362688065
1702338717285702400,43.30170239257812,9.7662935256958,0.2614564001560211,0.10999920964241028
1702338717384964900,43.40096484375,9.780811309814453,0.2653541564941406,0.11166556179523468
1702338717484229000,43.50022900390625,9.779346466064453,0.2771240472793579,0.11167514324188232
1702338717583491600,43.59949169921875,9.777565002441406,0.27748796343803406,0.12351207435131073
1702338717682755600,43.698755615234376,9.774280548095703,0.27723899483680725,0.11686577647924423
1702338717782018000,43.79801806640625,9.772931098937988,0.27990132570266724,0.1214434877038002
1702338717881282000,43.89728198242187,9.78219985961914,0.2738487720489502,0.1145864948630333
1702338717980544800,43.99654467773438,9.780370712280273,0.28028440475463867,0.11762233823537827
1702338718079807200,44.09580712890625,9.772078514099121,0.2633526027202606,0.10624509304761887
1702338718179071200,44.1950712890625,9.780620574951172,0.2735136151313782,0.11147402971982956
1702338718278333700,44.29433374023437,9.766073226928711,0.28425878286361694,0.10501926392316818
1702338718377597700,44.39359765625,9.775199890136719,0.2702479362487793,0.10978851467370987
1702338718476860400,44.4928603515625,9.764809608459473,0.26733654737472534,0.10501926392316818
1702338718576124400,44.59212451171875,9.794334411621094,0.2726421058177948,0.10551726073026657
1702338718675387000,44.691386962890626,9.77686595916748,0.25777891278266907,0.11970050632953644
1702338718774651000,44.79065087890625,9.770162582397461,0.28055256605148315,0.10720277577638626
1702338718873913300,44.88991333007812,9.783426284790039,0.2754577100276947,0.10206002742052078
1702338718973177600,44.989177490234376,9.780755043029785,0.2787712812423706,0.11498871445655823
1702338719072440000,45.08844018554687,9.774415016174316,0.2788957953453064,0.10726024210453033
1702338719171704000,45.1877041015625,9.772642135620117,0.2787329852581024,0.11850340664386749
1702338719270966500,45.28696655273438,9.781329154968262,0.28953561186790466,0.11904928833246231
1702338719370229000,45.38622900390625,9.769424438476562,0.26625439524650574,0.11812033504247665
1702338719469493000,45.485492919921874,9.774319648742676,0.2744808793067932,0.12186487019062042
1702338719568755700,45.58475561523438,9.768476486206055,0.28119421005249023,0.10916602611541748
1702338719668019700,45.684019775390624,9.78189468383789,0.27178022265434265,0.107566699385643
1702338719767282200,45.7832822265625,9.76761531829834,0.26754724979400635,0.11389696598052979
1702338719866546200,45.88254614257813,9.771791458129883,0.27115771174430847,0.11052592098712921
1702338719965808600,45.98180859375,9.786011695861816,0.26871564984321594,0.10892659425735474
1702338720065073000,46.08107299804688,9.778973579406738,0.2806674838066101,0.11067915707826614
1702338720164335400,46.18033544921875,9.767882347106934,0.2794607877731323,0.09185115247964859
1702338720263599400,46.279599365234375,9.778274536132812,0.259349524974823,0.12157756090164185
1702338720362861800,46.37886181640625,9.774682998657227,0.28061002492904663,0.11632947623729706
1702338720462124300,46.478124267578124,9.779279708862305,0.27844566106796265,0.11897267401218414
1702338720561388500,46.57738842773438,9.781137466430664,0.2694913446903229,0.10890744626522064
1702338720660651000,46.676651123046874,9.778848648071289,0.2731401026248932,0.10299855470657349
1702338720759915000,46.7759150390625,9.780869483947754,0.272393137216568,0.11743079870939255
1702338720859177500,46.87517749023438,9.77334213256836,0.2784552276134491,0.10615890473127365
1702338720958441500,46.97444140625,9.776415824890137,0.2744521200656891,0.12646172940731049
1702338721057704000,47.073703857421876,9.783714294433594,0.2726899981498718,0.09742485731840134
1702338721156968200,47.17296826171875,9.782708168029785,0.26919445395469666,0.11994951218366623
1702338721256230700,47.272230712890625,9.775956153869629,0.2690795361995697,0.11000878363847733
1702338721355494700,47.37149462890625,9.79508113861084,0.26550740003585815,0.120859295129776
1702338721454757000,47.47075708007812,9.776493072509766,0.2827073335647583,0.12093590945005417
1702338721554021000,47.570021240234375,9.76237678527832,0.26763346791267395,0.10383173823356628
1702338721653283800,47.66928393554687,9.774730682373047,0.268935889005661,0.10500010848045349
1702338721752546300,47.76854638671875,9.771819114685059,0.27277618646621704,0.09797073155641556
1702338721851810300,47.86781030273438,9.775860786437988,0.2799971103668213,0.11555375158786774
1702338721951072800,47.96707275390625,9.770105361938477,0.27894365787506104,0.10304643958806992
1702338722050336800,48.066336669921874,9.789641380310059,0.27178022265434265,0.11764149367809296
1702338722149599200,48.16559912109375,9.781865119934082,0.27472028136253357,0.12313857674598694
1702338722248863500,48.26486352539062,9.77285385131836,0.275974839925766,0.10954909771680832
1702338722348126000,48.3641259765625,9.779422760009766,0.26634058356285095,0.11076535284519196
1702338722447390000,48.46338989257813,9.77312183380127,0.27342739701271057,0.11866621673107147
1702338722546652400,48.56265234375,9.764023780822754,0.2775837481021881,0.10586202144622803
1702338722645916400,48.66191650390625,9.787764549255371,0.27458620071411133,0.10947248339653015
1702338722745179100,48.76117919921875,9.77735424041748,0.2701425850391388,0.11356177181005478
1702338722844443100,48.860443115234375,9.783943176269531,0.27484479546546936,0.11758402734994888
1702338722943705600,48.95970556640625,9.764445304870605,0.26652252674102783,0.11974839121103287
1702338723042968000,49.058968017578124,9.786385536193848,0.2681218683719635,0.11769896000623703
1702338723142230500,49.15823046875,9.777938842773438,0.2776699364185333,0.10961613059043884
1702338723241494800,49.25749487304687,9.784202575683594,0.2844598889350891,0.11805330216884613
1702338723340758800,49.3567587890625,9.781549453735352,0.2697499096393585,0.11217314004898071
1702338723440021200,49.45602124023438,9.768467903137207,0.2762717306613922,0.11547713726758957
1702338723539285200,49.55528515625,9.778475761413574,0.27970021963119507,0.1156303659081459
1702338723638547700,49.654547607421875,9.766149520874023,0.27986302971839905,0.11544840037822723
1702338723737810200,49.75381005859375,9.777364730834961,0.2730443477630615,0.10314220935106277
1702338723837074400,49.853074462890625,9.776617050170898,0.26869648694992065,0.11558248102664948
1702338723936338400,49.95233837890625,9.795215606689453,0.2761855125427246,0.09760680794715881
1702338724035601000,50.05160083007812,9.7769136428833,0.2797098159790039,0.1271704137325287
1702338724134865000,50.150864990234375,9.765125274658203,0.28303295373916626,0.11164641380310059
1702338724234127400,50.25012744140625,9.781722068786621,0.273101806640625,0.1168178841471672
1702338724333390000,50.34939013671875,9.77971076965332,0.2901006042957306,0.11522813886404037
1702338724432654000,50.448654052734376,9.769157409667969,0.2769133746623993,0.10493307560682297
1702338724531916500,50.54791650390625,9.766858100891113,0.272019624710083,0.1193365827202797
1702338724631179000,50.647178955078125,9.780763626098633,0.2807728350162506,0.10167695581912994
1702338724730443000,50.74644311523438,9.776090621948242,0.2903975248336792,0.10724107921123505
1702338724829707300,50.84570727539062,9.78046703338623,0.28290843963623047,0.1236940398812294
1702338724928969700,50.9449697265625,9.780773162841797,0.27194300293922424,0.1086297258734703
1702338725028233700,51.04423364257813,9.782976150512695,0.2689262926578522,0.11577402055263519
1702338725127496200,51.14349609375,9.783665657043457,0.28280308842658997,0.11526644974946976
1702338725226758700,51.24275854492188,9.767816543579102,0.271808922290802,0.12007400393486023
1702338725326023000,51.34202294921875,9.784058570861816,0.27869462966918945,0.1054406464099884
1702338725425285400,51.441285400390626,9.789650917053223,0.27388709783554077,0.1180245652794838
1702338725524549400,51.54054931640625,9.787592887878418,0.26642677187919617,0.11901097744703293
1702338725623811800,51.639811767578124,9.772221565246582,0.26864859461784363,0.11203905940055847
1702338725723074300,51.73907421875,9.790168762207031,0.2837895154953003,0.11191456764936447
1702338725822338300,51.83833837890625,9.779748916625977,0.28034186363220215,0.11785218864679337
1702338725921601000,51.93760107421875,9.783052444458008,0.2866434156894684,0.10952036082744598
1702338726020865000,52.03686499023438,9.775228500366211,0.27277618646621704,0.11987289786338806
1702338726120127500,52.13612744140625,9.774194717407227,0.2802077829837799,0.11207737028598785
1702338726219391500,52.2353916015625,9.78125286102295,0.2689071595668793,0.11418426781892776
1702338726318654000,52.33465405273437,9.768860816955566,0.28013116121292114,0.12154883146286011
1702338726417918200,52.433918212890624,9.784662246704102,0.2672695219516754,0.10224198549985886
1702338726517180700,52.5331806640625,9.771963119506836,0.2745383381843567,0.10561302304267883
1702338726616444700,52.63244458007812,9.781606674194336,0.2681218683719635,0.10767203569412231
1702338726715707100,52.73170703125,9.777680397033691,0.2871892750263214,0.1075858473777771
1702338726814971100,52.83097119140625,9.774367332458496,0.27892449498176575,0.12270762771368027
1702338726914233900,52.93023388671875,9.777076721191406,0.26710671186447144,0.12055283784866333
1702338727013496300,53.02949633789063,9.768908500671387,0.26971161365509033,0.12116575986146927
1702338727112760300,53.12876025390625,9.777986526489258,0.28009286522865295,0.10607271641492844
1702338727212022800,53.228022705078125,9.786041259765625,0.258267343044281,0.1140884980559349
1702338727311286800,53.32728686523438,9.784546852111816,0.27296772599220276,0.1185896024107933
1702338727410549200,53.42654931640625,9.787640571594238,0.27017128467559814,0.10116938501596451
1702338727509813500,53.5258134765625,9.772566795349121,0.2725846469402313,0.12245862931013107
1702338727609076000,53.62507592773437,9.781435012817383,0.2751895487308502,0.12285128235816956
1702338727708340000,53.724340087890624,9.779519081115723,0.2715216279029846,0.11523772031068802
1702338727807602400,53.8236025390625,9.774232864379883,0.2693668603897095,0.11590809375047684
1702338727906866400,53.92286645507812,9.770181655883789,0.2762717306613922,0.11859917640686035
1702338728006129200,54.022129150390626,9.768888473510742,0.26033589243888855,0.1124412938952446
1702338728105391600,54.1213916015625,9.787640571594238,0.289937824010849,0.1106504276394844
1702338728204655600,54.22065551757812,9.78984260559082,0.2831191420555115,0.10325713455677032
1702338728303918000,54.31991796875,9.772336959838867,0.2703340947628021,0.12213301658630371
1702338728403182000,54.41918212890625,9.763899803161621,0.2735136151313782,0.11512279510498047
1702338728502444500,54.518444580078125,9.786212921142578,0.2766452431678772,0.11264239996671677
1702338728601708800,54.61770874023438,9.770641326904297,0.27246013283729553,0.11512279510498047
1702338728700971300,54.71697119140625,9.77312183380127,0.2697690725326538,0.10346782207489014
1702338728800235300,54.8162353515625,9.776876449584961,0.284900426864624,0.12066776305437088
1702338728899497700,54.91549780273437,9.775104522705078,0.2698935568332672,0.12527421116828918
1702338728998761700,55.01476171875,9.769444465637207,0.26292166113853455,0.1208401471376419
1702338729098024400,55.1140244140625,9.760010719299316,0.2732837498188019,0.10295067727565765
1702338729197288400,55.21328833007812,9.765057563781738,0.27723899483680725,0.12370361387729645
1702338729296551000,55.312551025390626,9.784479141235352,0.2708129584789276,0.11308293044567108
1702338729395813400,55.4118134765625,9.763036727905273,0.2797289490699768,0.12042834609746933
1702338729495077400,55.51107739257812,9.765862464904785,0.28184542059898376,0.10850521922111511
1702338729594340000,55.61034008789063,9.783148765563965,0.2588898241519928,0.11846510320901871
1702338729693604000,55.70960400390625,9.771167755126953,0.2722686231136322,0.11618582159280777
1702338729792866600,55.808866455078125,9.763497352600098,0.27339866757392883,0.13258130848407745
1702338729892130600,55.90813061523438,9.77348518371582,0.27123430371284485,0.11882901936769485
1702338729991393000,56.00739306640625,9.783120155334473,0.2636399269104004,0.11605174094438553
1702338730090657300,56.1066572265625,9.783339500427246,0.2791638970375061,0.1156303659081459
1702338730189919700,56.20591967773437,9.771302223205566,0.2793554663658142,0.09625648707151413
1702338730289183700,56.305183837890624,9.769454002380371,0.26990312337875366,0.11260409653186798
1702338730388446200,56.4044462890625,9.776741981506348,0.27176105976104736,0.12801317870616913
1702338730487710200,56.50371020507812,9.777173042297363,0.2758695185184479,0.12198936194181442
1702338730586972700,56.60297265625,9.795540809631348,0.27486392855644226,0.11011412739753723
1702338730686235400,56.7022353515625,9.764052391052246,0.26660874485969543,0.1110047698020935
1702338730785497900,56.801497802734374,9.771742820739746,0.2825828194618225,0.10500010848045349
1702338730884761900,56.90076196289063,9.76651382446289,0.2692902088165283,0.11920251697301865
1702338730984025900,57.00002587890625,9.766303062438965,0.2697403132915497,0.12230540066957474
1702338731083288300,57.099288330078124,9.765900611877441,0.27029579877853394,0.1115027591586113
1702338731182552600,57.19855249023438,9.779298782348633,0.2737913131713867,0.11300631612539291
1702338731281815000,57.29781494140625,9.77356243133545,0.27725815773010254,0.11318828165531158
1702338731381077500,57.397077392578126,9.765833854675293,0.2652488052845001,0.1203804612159729
1702338731480341500,57.49634155273438,9.755088806152344,0.2687635123729706,0.1052108034491539
1702338731579605500,57.59560546875,9.77453899383545,0.2752470076084137,0.09878475964069366
1702338731678868200,57.6948681640625,9.780486106872559,0.2774783968925476,0.10986512899398804
1702338731778132200,57.79413232421875,9.774759292602539,0.27975767850875854,0.1133989691734314
1702338731877394700,57.893394775390625,9.782238960266113,0.2868157923221588,0.11240298300981522
1702338731976657200,57.9926572265625,9.775065422058105,0.2662447988986969,0.10392750799655914
1702338732075921200,58.09192114257812,9.781722068786621,0.2788957953453064,0.11260409653186798
1702338732175185400,58.191185302734375,9.771990776062012,0.2646358907222748,0.1206294521689415
1702338732274446300,58.2904462890625,9.763736724853516,0.26063278317451477,0.11545798182487488
1702338732373710300,58.38971044921875,9.784202575683594,0.2818933129310608,0.12150094658136368
1702338732472974300,58.48897436523438,9.774118423461914,0.26456886529922485,0.11831187456846237
1702338732572236800,58.58823681640625,9.788836479187012,0.2780147194862366,0.11305420845746994
1702338732671499300,58.687499267578126,9.781444549560547,0.2759365141391754,0.1212136447429657
1702338732770763500,58.78676342773438,9.771982192993164,0.27046817541122437,0.10636959224939346
1702338732870026000,58.88602587890625,9.785667419433594,0.2806483209133148,0.11414595693349838
1702338732969290000,58.9852900390625,9.780610084533691,0.2770569920539856,0.11176133900880814
1702338733068554000,59.08455395507813,9.7853422164917,0.2827743887901306,0.10708785057067871
1702338733167816400,59.18381640625,9.765833854675293,0.27610892057418823,0.10658028721809387
1702338733267079200,59.2830791015625,9.785706520080566,0.2740020155906677,0.11710519343614578
1702338733366343200,59.38234326171875,9.775985717773438,0.28030356764793396,0.12459425628185272
1702338733465605600,59.48160571289063,9.769195556640625,0.2668098509311676,0.10798807442188263
1702338733564868000,59.5808681640625,9.776128768920898,0.25425463914871216,0.1148163378238678
1702338733664132000,59.680132080078124,9.76978874206543,0.26556485891342163,0.11567824333906174
1702338733763394600,59.77939453125,9.778820037841797,0.26827508211135864,0.1157548651099205
1702338733862658800,59.87865893554687,9.771839141845703,0.2802269160747528,0.11770853400230408
1702338733961921300,59.97792138671875,9.7825927734375,0.26304614543914795,0.10707827657461166
1702338734061185300,60.07718530273438,9.777125358581543,0.27404990792274475,0.11401188373565674
1702338734160447700,60.17644775390625,9.763640403747559,0.2825828194618225,0.11561121046543121
1702338734259711700,60.275711669921876,9.772709846496582,0.2804950773715973,0.11885774880647659
1702338734358974500,60.37497436523437,9.780610084533691,0.2668481469154358,0.11949940025806427
1702338734458238500,60.474238525390625,9.773781776428223,0.2604987323284149,0.11699984967708588
1702338734557501000,60.5735009765625,9.773849487304688,0.26715460419654846,0.11424172669649124
1702338734656763400,60.672763427734374,9.77420425415039,0.27020958065986633,0.11526644974946976
1702338734756027400,60.77202734375,9.78718090057373,0.27515125274658203,0.11135910451412201
1702338734855289900,60.87128979492188,9.764962196350098,0.2812037765979767,0.11020031571388245
1702338734954554000,60.97055419921875,9.783723831176758,0.26125529408454895,0.12494859844446182
1702338735053816600,61.06981665039063,9.775870323181152,0.27321672439575195,0.11486422270536423
1702338735153080600,61.16908056640625,9.778398513793945,0.27704745531082153,0.11797668784856796
1702338735252343000,61.268343017578125,9.787095069885254,0.2613319158554077,0.10653240233659744
1702338735351607000,61.36760693359375,9.77747917175293,0.2752087116241455,0.11739249527454376
1702338735450869800,61.466869873046875,9.783215522766113,0.27133965492248535,0.0995221808552742
1702338735550133800,61.5661337890625,9.761543273925781,0.28925788402557373,0.10127473622560501
1702338735649396200,61.66539624023437,9.785543441772461,0.2746245265007019,0.12493901699781418
1702338735748660200,61.76466015625,9.789278030395508,0.26515305042266846,0.1252167522907257
1702338735847922700,61.86392260742188,9.777929306030273,0.2818741500377655,0.10388919711112976
1702338735947187000,61.96318701171875,9.782536506652832,0.2708033621311188,0.10716446489095688
1702338736046449400,62.062449462890626,9.785686492919922,0.2828797399997711,0.11230721324682236
1702338736145711900,62.1617119140625,9.780400276184082,0.2744138240814209,0.1234450414776802
1702338736244975900,62.260975830078124,9.781042098999023,0.2719525694847107,0.12552320957183838
1702338736344238300,62.36023828125,9.77180004119873,0.27144500613212585,0.10967358946800232
1702338736443502600,62.45950268554687,9.774711608886719,0.26864859461784363,0.10950120538473129
1702338736542765000,62.55876513671875,9.77458667755127,0.2734944522380829,0.09639056026935577
1702338736642029000,62.65802905273438,9.78707504272461,0.28273606300354004,0.10546937584877014
1702338736741291500,62.75729150390625,9.776100158691406,0.273312509059906,0.11840763688087463
1702338736840555500,62.856555419921875,9.788521766662598,0.267643004655838,0.11326489597558975
1702338736939818000,62.95581787109375,9.777019500732422,0.26819849014282227,0.10311347991228104
1702338737039082200,63.055082275390625,9.777872085571289,0.2872563302516937,0.11656889319419861
1702338737138344700,63.1543447265625,9.792581558227539,0.2743755280971527,0.10862013697624207
1702338737237608700,63.25360864257812,9.781587600708008,0.2788766026496887,0.11346600204706192
1702338737336871200,63.35287109375,9.781195640563965,0.27436593174934387,0.1145864948630333
1702338737436133600,63.45213354492188,9.763172149658203,0.27594611048698425,0.10104489326477051
1702338737535398000,63.55139794921875,9.780983924865723,0.271310955286026,0.11061212420463562
1702338737634660400,63.65066040039063,9.775218963623047,0.2719813287258148,0.11939404904842377
1702338737733924400,63.74992431640625,9.78650951385498,0.27456703782081604,0.11310208588838577
1702338737833186800,63.849186767578125,9.775314331054688,0.26166707277297974,0.1086297258734703
1702338737932450800,63.94845092773438,9.782114028930664,0.2751608192920685,0.1242973804473877
1702338738031713500,64.04771362304687,9.782755851745605,0.2689933478832245,0.11122503876686096
1702338738130977500,64.1469775390625,9.77748966217041,0.2823721766471863,0.10879252851009369
1702338738230240000,64.24623999023437,9.785781860351562,0.2840768098831177,0.11379161477088928
1702338738329504000,64.34550390625,9.796096801757812,0.27009469270706177,0.11528559774160385
1702338738428766500,64.44476635742187,9.772153854370117,0.27178022265434265,0.10268252342939377
1702338738528029000,64.54402880859375,9.787525177001953,0.2681218683719635,0.11513236910104752
1702338738627293200,64.64329321289063,9.789125442504883,0.27365726232528687,0.11657846719026566
1702338738726555600,64.7425556640625,9.773552894592285,0.2684570550918579,0.1161092072725296
1702338738825819600,64.84181958007812,9.785475730895996,0.2763579189777374,0.11973881721496582
1702338738925082000,64.94108203125,9.787793159484863,0.27132052183151245,0.12680649757385254
1702338739024346000,65.04034619140624,9.767107009887695,0.2654307782649994,0.1313171684741974
1702338739123608800,65.13960888671875,9.77851390838623,0.2878500819206238,0.11465353518724442
1702338739222872800,65.23887280273438,9.772863388061523,0.2706596851348877,0.10590033233165741
1702338739322135300,65.33813525390624,9.779825210571289,0.27669310569763184,0.09557653218507767
1702338739421399300,65.4373994140625,9.779644012451172,0.2840768098831177,0.10961613059043884
1702338739520661800,65.53666186523438,9.784537315368652,0.27536192536354065,0.11502702534198761
1702338739619926000,65.63592602539063,9.778800964355469,0.27204835414886475,0.12666285037994385
1702338739719188500,65.7351884765625,9.773130416870117,0.27406907081604004,0.11097603291273117
1702338739818451000,65.83445092773438,9.778274536132812,0.285015344619751,0.10682927817106247
1702338739917715000,65.93371484375,9.76673412322998,0.2647029459476471,0.11425130814313889
1702338740016977400,66.03297729492188,9.781625747680664,0.2748734951019287,0.12126152962446213
1702338740116241700,66.13224169921875,9.772192001342773,0.27511292695999146,0.09673532843589783
1702338740215504100,66.23150415039062,9.778504371643066,0.25605508685112,0.10743261873722076
1702338740314768100,66.33076806640625,9.758928298950195,0.2672024965286255,0.10054689645767212
1702338740414030600,66.43003051757813,9.793185234069824,0.26926150918006897,0.11535263806581497
1702338740513293000,66.52929296875,9.77255630493164,0.27902984619140625,0.10100658237934113
1702338740612557000,66.62855712890625,9.780275344848633,0.26873478293418884,0.10913728922605515
1702338740711821300,66.7278212890625,9.78402042388916,0.2786276340484619,0.10755711048841476
1702338740811083800,66.82708374023437,9.78041934967041,0.28907594084739685,0.11704772710800171
1702338740910346200,66.92634619140625,9.777814865112305,0.2694913446903229,0.10582371801137924
1702338741009610200,67.0256103515625,9.783963203430176,0.2733699679374695,0.1061493307352066
1702338741108872700,67.12487280273437,9.789872169494629,0.27696123719215393,0.11391611397266388
1702338741208137000,67.22413696289063,9.789756774902344,0.26639804244041443,0.1117326021194458
1702338741307399400,67.3233994140625,9.777593612670898,0.2801694869995117,0.09522219002246857
1702338741406662000,67.42266186523437,9.778312683105469,0.2698744237422943,0.13191093504428864
1702338741505926000,67.52192578125,9.783263206481934,0.27449044585227966,0.11520898342132568
1702338741605188400,67.62118823242187,9.780304908752441,0.27073633670806885,0.12061987817287445
1702338741704452400,67.72045239257812,9.76793098449707,0.27844566106796265,0.12714168429374695
1702338741803716600,67.81971655273438,9.770755767822266,0.2761280834674835,0.10232818126678467
1702338741902979000,67.91897900390624,9.780649185180664,0.2710331976413727,0.11301589757204056
1702338742002241500,68.01824145507813,9.77725887298584,0.28859707713127136,0.11400230973958969
1702338742101505500,68.11750561523438,9.780169486999512,0.284852534532547,0.10115022957324982
1702338742200769800,68.21676977539063,9.783981323242188,0.2697307765483856,0.10333374887704849
1702338742300032300,68.3160322265625,9.766676902770996,0.24916936457157135,0.10979808866977692
1702338742399294700,68.41529467773438,9.776904106140137,0.26363033056259155,0.11033438891172409
1702338742498557200,68.51455712890625,9.7694730758667,0.2703724205493927,0.10548852384090424
1702338742597821200,68.6138212890625,9.779701232910156,0.2606615424156189,0.11989204585552216
1702338742697083600,68.71308374023438,9.772153854370117,0.2704107165336609,0.11018116027116776
1702338742796348000,68.81234790039062,9.77299690246582,0.2683899998664856,0.11590809375047684
1702338742895610400,68.9116103515625,9.765910148620605,0.27269959449768066,0.1181299164891243
1702338742994874400,69.01087426757813,9.762491226196289,0.28154855966567993,0.11092815548181534
1702338743094136800,69.11013671875,9.768563270568848,0.2680356800556183,0.12032299488782883
1702338743193400800,69.20940087890625,9.776358604431152,0.28034186363220215,0.1120869442820549
1702338743292663300,69.30866333007812,9.785505294799805,0.28686368465423584,0.10944374650716782
1702338743391927600,69.40792749023437,9.78325366973877,0.27707618474960327,0.09820057451725006
1702338743491190000,69.50718994140625,9.765843391418457,0.2786659300327301,0.11383949965238571
1702338743590454000,69.6064541015625,9.777575492858887,0.27842652797698975,0.11383949965238571
1702338743689716500,69.70571655273437,9.78238296508789,0.27963316440582275,0.09436027705669403
1702338743788979000,69.80497900390625,9.763334274291992,0.2775837481021881,0.11847467720508575
1702338743888243200,69.9042431640625,9.782574653625488,0.27472984790802,0.11989204585552216
1702338743987505700,70.00350561523437,9.78477668762207,0.2812899649143219,0.11198160797357559
1702338744086769700,70.10276977539063,9.774299621582031,0.26692476868629456,0.10811257362365723
1702338744186032000,70.2020322265625,9.770095825195312,0.27902984619140625,0.11192414164543152
1702338744285296000,70.30129614257812,9.785686492919922,0.2813090980052948,0.12134771794080734
1702338744384558800,70.40055883789063,9.771551132202148,0.26256731152534485,0.11308293044567108
1702338744483822800,70.49982275390624,9.786347389221191,0.2701425850391388,0.10760500282049179
1702338744583085300,70.59908520507813,9.787409782409668,0.2764919698238373,0.1060439869761467
1702338744682349300,70.69834936523438,9.78402042388916,0.27223989367485046,0.12219047546386719
1702338744781611800,70.79761181640625,9.769912719726562,0.2681888937950134,0.12127110362052917
1702338744880876000,70.8968759765625,9.777833938598633,0.27390626072883606,0.10630255937576294
1702338744980138500,70.99613842773438,9.777192115783691,0.2666853368282318,0.09346963465213776
1702338745079402500,71.09540258789062,9.781722068786621,0.2807632386684418,0.10466492176055908
1702338745178665000,71.1946650390625,9.772777557373047,0.2616383731365204,0.11899182200431824
1702338745277929000,71.29392895507813,9.774290084838867,0.2708224952220917,0.12636595964431763
1702338745377191400,71.39319140625,9.766742706298828,0.2613031566143036,0.11334151029586792
1702338745476454100,71.4924541015625,10.504952430725098,0.29615315794944763,0.22126254439353943
1702338745575718100,71.59171826171875,10.784882545471191,0.12696930766105652,-0.8180986642837524
1702338745674980600,71.69098071289062,9.790091514587402,0.2094830721616745,0.17853084206581116
1702338745774244600,71.79024462890625,13.822310447692871,0.1510932743549347,-0.10422439128160477
1702338745873507000,71.88950708007812,9.680724143981934,0.28682538866996765,0.05282566323876381
1702338745972771300,71.98877124023437,9.797198295593262,0.26231834292411804,0.115984708070755
1702338746072033800,72.08803369140625,9.766005516052246,0.3802758455276489,0.15666697919368744
1702338746171296300,72.18729614257812,9.749629974365234,0.3316352665424347,-2.3532321453094482
1702338746270560300,72.28656030273437,9.906133651733398,-0.0447811484336853,1.4794633388519287
1702338746369822700,72.38582275390625,9.802762031555176,1.8835184574127197,-1.8562724590301514
1702338746469087000,72.4850869140625,9.752225875854492,0.1988528072834015,0.3231501877307892
1702338746568349400,72.58434936523437,9.854448318481445,1.022170901298523,-1.374836802482605
1702338746667613400,72.68361352539063,9.83340835571289,-0.7405266165733337,0.13027329742908478
1702338746766876000,72.7828759765625,9.85282039642334,0.5551196336746216,1.704939842224121
1702338746866140000,72.88213989257812,8.982967376708984,0.6156066656112671,0.8602749705314636
1702338746965402400,72.98140234375,9.40341854095459,1.023454189300537,-0.3095319867134094
1702338747064666600,73.08066650390624,9.393927574157715,0.2777465581893921,0.06144479289650917
1702338747163929000,73.17992919921875,9.811362266540527,0.3651444911956787,0.23268766701221466
1702338747263193000,73.27919311523438,9.867653846740723,0.44329121708869934,0.5832563042640686
1702338747362455600,73.37845556640625,9.901308059692383,-1.1881369352340698,0.9141923785209656
1702338747461719600,73.47771948242188,9.75778865814209,0.16084246337413788,-0.3524360656738281
1702338747560982300,73.57698217773438,9.743050575256348,0.4278630018234253,-0.4520348608493805
1702338747660244700,73.67624462890625,10.173931121826172,0.4204026758670807,0.7380174398422241
1702338747759508700,73.7755087890625,9.671272277832031,-0.5802779197692871,1.4025424718856812
1702338747858771200,73.87477124023438,8.959054946899414,0.1951465904712677,-0.7546906471252441
1702338747958035200,73.97403515625,9.892765045166016,-0.3750373125076294,-0.2437010109424591
1702338748057298000,74.0732978515625,10.122895240783691,-1.752699375152588,0.9804447889328003
1702338748156562000,74.17256201171875,10.309709548950195,0.01444182451814413,0.7246578335762024
1702338748255824400,74.27182446289062,9.418320655822754,-0.18859605491161346,1.33836829662323
1702338748355088400,74.37108837890625,9.276315689086914,0.49345454573631287,1.8041841983795166
1702338748454350800,74.47035083007812,8.103797912597656,-0.16400282084941864,-0.4015651047229767
1702338748553615000,74.56961499023437,10.224754333496094,0.014202403835952282,-1.3226431608200073
1702338748652877600,74.66887768554687,7.762442588806152,0.14695610105991364,-3.4379491806030273
1702338748752140000,74.76814013671876,9.643251419067383,0.7413119077682495,-2.608741283416748
1702338748851404000,74.86740405273437,9.793118476867676,-0.07429686933755875,-2.757296562194824
1702338748950666500,74.96666650390625,8.866983413696289,1.1415457725524902,-4.450073719024658
1702338749049930500,75.06593041992187,10.233996391296387,0.011453861370682716,-3.0236659049987793
1702338749149193200,75.16519311523437,9.747025489807129,0.5777400732040405,-2.182180643081665
1702338749248455700,75.26445556640626,9.74356746673584,-0.46432191133499146,-1.141689419746399
1702338749347719700,75.3637197265625,9.106432914733887,-1.4087196588516235,-1.3496689796447754
1702338749446983700,75.46298364257812,9.990506172180176,-1.4735162258148193,-0.9758957624435425
1702338749546246100,75.56224609375,8.187499046325684,0.7876540422439575,1.109089970588684
1702338749645508600,75.66150854492187,8.634439468383789,0.3009032607078552,-0.0510731115937233
1702338749744772900,75.76077294921875,9.965797424316406,0.14725297689437866,0.20761559903621674
1702338749844036900,75.86003686523438,9.71335220336914,0.24472571909427643,0.21119733154773712
1702338749943299300,75.95929931640624,9.73832893371582,0.25552836060523987,0.20323899388313293
1702338750042563300,76.05856323242188,9.807425498962402,0.21510465443134308,0.19650650024414062
1702338750141824300,76.15782421875,9.794631004333496,0.22563914954662323,0.19357599318027496
1702338750241088500,76.25708862304687,9.768754959106445,0.22267991304397583,0.1917276829481125
1702338750340351000,76.35635107421875,9.774559020996094,0.23333889245986938,0.2001073807477951
1702338750439615000,76.45561499023438,9.777029037475586,0.22138704359531403,0.19655437767505646
1702338750538877400,76.55487744140625,9.764397621154785,0.22257457673549652,0.20178332924842834
1702338750638141400,76.65414135742188,9.804323196411133,0.21432892978191376,0.2070218324661255
1702338750737404200,76.75340405273438,9.768390655517578,0.21326591074466705,0.18000565469264984
1702338750836668200,76.85266821289062,9.785916328430176,0.2229001820087433,0.20825724303722382
1702338750935930600,76.9519306640625,9.779318809509277,0.21659862995147705,0.21381178498268127
1702338751035194600,77.05119458007813,9.77131175994873,0.21035456657409668,0.18203595280647278
1702338751134457000,77.15045703125,9.772499084472656,0.2212146669626236,0.20599710941314697
1702338751233721300,77.24972143554687,9.773983001708984,0.21202091872692108,0.19047310948371887
1702338751332983800,77.34898388671876,9.777661323547363,0.21272961795330048,0.19452409446239471
1702338751432246300,77.44824633789062,9.77290153503418,0.2238387018442154,0.20291337370872498
1702338751531510300,77.54751025390625,9.763774871826172,0.22420261800289154,0.2194429486989975
1702338751630772700,77.64677270507812,9.777288436889648,0.2285696417093277,0.19640114903450012
1702338751730036700,77.74603662109375,9.787171363830566,0.2194429486989975,0.20690689980983734
1702338751829299500,77.84529956054688,9.777029037475586,0.23326228559017181,0.1980866640806198
1702338751928563500,77.9445634765625,9.77290153503418,0.22721931338310242,0.19471563398838043
1702338752027826000,78.04382592773437,9.763315200805664,0.20515435934066772,0.2040242850780487
1702338752127090000,78.14308984375,9.781760215759277,0.2245474010705948,0.19328869879245758
1702338752226352400,78.24235229492187,9.765632629394531,0.21385009586811066,0.20959798991680145
1702338752325616600,78.34161669921875,9.780649185180664,0.22199039161205292,0.21272961795330048
1702338752424879000,78.44087915039063,9.773820877075195,0.220467671751976,0.19601808488368988
1702338752524143000,78.54014306640624,9.752129554748535,0.2145875096321106,0.2229672074317932
1702338752623405600,78.63940551757813,9.777507781982422,0.22245007753372192,0.19816328585147858
1702338752722668000,78.73866796875,9.769195556640625,0.22161687910556793,0.19699491560459137
1702338752821932300,78.83793237304687,9.790532112121582,0.22983378171920776,0.2016492486000061
1702338752921194800,78.93719482421875,9.772833824157715,0.2267787754535675,0.20565234124660492
1702338753020458800,79.03645874023438,9.78156852722168,0.22380998730659485,0.19272366166114807
1702338753119721200,79.13572119140625,9.781444549560547,0.21360109746456146,0.2010842114686966
1702338753218985200,79.23498510742188,9.767557144165039,0.21449173986911774,0.20162051916122437
1702338753318247700,79.33424755859374,9.788894653320312,0.22767899930477142,0.17469052970409393
1702338753417512000,79.43351196289062,9.776607513427734,0.21771913766860962,0.19120094180107117
1702338753516774400,79.5327744140625,9.773955345153809,0.21679016947746277,0.18906532227993011
1702338753616038400,79.63203833007813,9.78276538848877,0.2199888378381729,0.21657948195934296
1702338753715300900,79.73130078125,9.793022155761719,0.21837034821510315,0.18040788173675537
1702338753814564900,79.83056494140625,9.765019416809082,0.2233598679304123,0.18400876224040985
1702338753913827600,79.92982763671876,9.775870323181152,0.21665610373020172,0.20082563161849976
1702338754013090000,80.02909008789062,9.765852928161621,0.1955009251832962,0.19841228425502777
1702338754112354000,80.12835400390625,9.766878128051758,0.20642806589603424,0.20374657213687897
1702338754211616500,80.22761645507812,9.792399406433105,0.22531354427337646,0.2127966433763504
1702338754310880500,80.32688061523437,9.764914512634277,0.21772870421409607,0.17969919741153717
1702338754410143200,80.42614331054688,9.756583213806152,0.22082200646400452,0.18901744484901428
1702338754509407200,80.5254072265625,9.773370742797852,0.22753535211086273,0.1929822415113449
1702338754608669700,80.62466967773437,9.764664649963379,0.2284068465232849,0.2046084702014923
1702338754707933700,80.72393359375,9.777336120605469,0.22623291611671448,0.20320068299770355
1702338754807196200,80.82319604492187,9.776655197143555,0.21272003650665283,0.19042523205280304
1702338754906460400,80.92246044921875,9.782966613769531,0.2158612161874771,0.20193655788898468
1702338755005723000,81.02172290039063,9.77420425415039,0.20481917262077332,0.21132181584835052
1702338755104987000,81.12098681640624,9.766312599182129,0.22935494780540466,0.20442651212215424
1702338755204249300,81.22024926757813,9.787171363830566,0.2324482500553131,0.1870829164981842
1702338755303511800,81.31951171875,9.775065422058105,0.21874384582042694,0.19427509605884552
1702338755402775800,81.41877587890625,9.769013404846191,0.21487481892108917,0.20570021867752075
1702338755502038500,81.51803857421875,9.789200782775879,0.21050779521465302,0.1973588466644287
1702338755601302500,81.61730249023438,9.766705513000488,0.20790289342403412,0.20405302941799164
1702338755700565000,81.71656494140625,9.8106050491333,0.21876299381256104,0.19699491560459137
1702338755799829000,81.8158291015625,9.755041122436523,0.22566787898540497,0.19534769654273987
1702338755899091500,81.91509155273438,9.774702072143555,0.2181309312582016,0.19793343544006348
1702338755998355700,82.01435571289062,9.775152206420898,0.22838769853115082,0.1941697597503662
1702338756097618200,82.1136181640625,9.772375106811523,0.21913649141788483,0.20913830399513245
1702338756196880600,82.21288061523437,9.779882431030273,0.22434628009796143,0.20922450721263885
1702338756296144600,82.31214453125,9.791863441467285,0.21151335537433624,0.20386147499084473
1702338756395408600,82.41140869140625,9.7843656539917,0.22072623670101166,0.20541293919086456
1702338756494671000,82.51067114257812,9.766389846801758,0.22221064567565918,0.16058389842510223
1702338756593933800,82.60993383789062,9.79219913482666,0.21916522085666656,0.18875886499881744
1702338756693196300,82.7091962890625,9.77356243133545,0.23324313759803772,0.18636465072631836
1702338756792460300,82.80846020507812,9.761926651000977,0.22095608711242676,0.19173724949359894
1702338756891722800,82.90772265625,9.751449584960938,0.22907721996307373,0.19659270346164703
1702338756990986800,83.00698681640625,9.762434005737305,0.20976080000400543,0.20197485387325287
1702338757090251000,83.1062509765625,9.765220642089844,0.21833205223083496,0.20780712366104126
1702338757189513500,83.20551342773437,9.766226768493652,0.21199220418930054,0.19994457066059113
1702338757288776000,83.30477587890626,9.76854419708252,0.21844695508480072,0.20276972651481628
1702338757388040000,83.4040400390625,9.78859806060791,0.23220883309841156,0.19154570996761322
1702338757487304000,83.50330395507812,9.765067100524902,0.21819797158241272,0.1922065168619156
1702338757586566700,83.60256665039063,9.769233703613281,0.22593602538108826,0.20495325326919556
1702338757685829000,83.7018291015625,9.776569366455078,0.23240993916988373,0.1952710896730423
1702338757785093000,83.80109301757813,9.788224220275879,0.2157750427722931,0.19090406596660614
1702338757884355600,83.90035546875,9.76940631866455,0.2233598679304123,0.22684583067893982
1702338757983618000,83.9996181640625,9.785552978515625,0.21723070740699768,0.20823808014392853
1702338758082882000,84.09888208007813,9.773801803588867,0.20814232528209686,0.20443609356880188
1702338758182144800,84.19814477539063,9.763669967651367,0.21759462356567383,0.2225075215101242
1702338758281408800,84.29740869140625,9.809408187866211,0.22783222794532776,0.19949446618556976
1702338758380671200,84.39667114257813,9.787400245666504,0.22423134744167328,0.20420625805854797
1702338758479935200,84.49593530273438,9.766342163085938,0.21047906577587128,0.19791428744792938
1702338758579197700,84.59519775390625,9.777029037475586,0.22448992729187012,0.21593783795833588
1702338758678462000,84.6944619140625,9.754656791687012,0.22354182600975037,0.19341319799423218
1702338758777724400,84.79372436523437,9.781578063964844,0.2211093157529831,0.20715591311454773
1702338758876988400,84.89298852539062,9.781462669372559,0.21822670102119446,0.19595104455947876
1702338758976251000,84.9922509765625,9.770297050476074,0.2196727842092514,0.2075006663799286
1702338759075513300,85.09151342773437,9.769013404846191,0.22397278249263763,0.1956254243850708
1702338759174777600,85.19077758789062,9.797896385192871,0.2250070869922638,0.19111476838588715
1702338759274040000,85.2900400390625,9.77993106842041,0.22764070332050323,0.1930875927209854
1702338759373304000,85.38930395507812,9.765776634216309,0.21280622482299805,0.20878396928310394
1702338759472566500,85.48856640625,9.7843656539917,0.2190694510936737,0.19451452791690826
1702338759571830500,85.58783056640625,9.769817352294922,0.21218372881412506,0.19953277707099915
1702338759671093000,85.68709301757812,9.77623462677002,0.21982601284980774,0.20679199695587158
1702338759770357200,85.78635717773437,9.76335334777832,0.22341732680797577,0.2061886489391327
1702338759869619700,85.88561962890626,9.778428077697754,0.2169433981180191,0.18863436579704285
1702338759968883700,85.9848837890625,9.767672538757324,0.22718101739883423,0.1954817771911621
1702338760068146200,86.08414624023438,9.765680313110352,0.22845472395420074,0.18234241008758545
1702338760167410200,86.18341015625,9.778120994567871,0.22675006091594696,0.1928960382938385
1702338760266673000,86.2826728515625,9.750290870666504,0.2136489897966385,0.20320068299770355
1702338760365935400,86.38193530273438,9.805624961853027,0.22055386006832123,0.18878759443759918
1702338760465199400,86.48119946289063,9.78103256225586,0.2165890634059906,0.1972917914390564
1702338760564461800,86.5804619140625,9.769549369812012,0.21947167813777924,0.20203231275081635
1702338760663725800,86.67972583007813,9.77409839630127,0.21947167813777924,0.20481917262077332
1702338760762988500,86.77898852539063,9.775296211242676,0.21714451909065247,0.20989488065242767
1702338760862252500,86.87825244140625,9.769530296325684,0.2277173101902008,0.2053171545267105
1702338760961515000,86.97751489257813,9.77397346496582,0.2310308814048767,0.19740672409534454
1702338761060779000,87.07677905273438,9.768888473510742,0.21738393604755402,0.19642987847328186
1702338761160041500,87.17604150390625,9.795809745788574,0.22666385769844055,0.20515435934066772
1702338761259305700,87.2753056640625,9.77202033996582,0.21713493764400482,0.20576727390289307
1702338761358568200,87.37456811523438,9.77027702331543,0.21876299381256104,0.2046276181936264
1702338761457832200,87.47383227539062,9.767701148986816,0.21528662741184235,0.19187131524085999
1702338761557094700,87.5730947265625,9.768524169921875,0.21545900404453278,0.2111302763223648
1702338761656358700,87.67235864257813,9.774299621582031,0.21126435697078705,0.20515435934066772
1702338761755621000,87.77162109375,9.787017822265625,0.2448214888572693,0.18840453028678894
1702338761854883800,87.8708837890625,9.78641414642334,0.2124231606721878,0.20185035467147827
1702338761954147800,87.97014794921876,9.77769947052002,0.2347371131181717,0.18585708737373352
1702338762053410300,88.06941040039062,9.773361206054688,0.2059205025434494,0.20380403101444244
1702338762152674300,88.16867431640625,9.781281471252441,0.2214253544807434,0.1977706253528595
1702338762251936800,88.26793676757812,9.769042015075684,0.21684764325618744,0.2092723846435547
1702338762351201000,88.36720092773437,9.784173965454102,0.2231300175189972,0.19167020916938782
1702338762450463500,88.46646337890625,9.7694730758667,0.2245090752840042,0.2118581235408783
1702338762549727500,88.5657275390625,9.774950981140137,0.21505677700042725,0.1976269781589508
1702338762648990000,88.66498999023437,9.765833854675293,0.21584206819534302,0.19625750184059143
1702338762748254000,88.76425390625,9.791882514953613,0.2216743528842926,0.19692787528038025
1702338762847516400,88.86351635742187,9.790484428405762,0.20701225101947784,0.18994638323783875
1702338762946779100,88.96277905273438,9.774529457092285,0.21278706192970276,0.20398598909378052
1702338763046043100,89.06204321289063,9.775602340698242,0.22764070332050323,0.20446482300758362
1702338763145307100,89.16130712890624,9.774903297424316,0.22684583067893982,0.19922631978988647
1702338763244569600,89.26056958007813,9.787458419799805,0.2262999415397644,0.20742405951023102
1702338763343832000,89.35983203125,9.778964042663574,0.22720974683761597,0.1983548253774643
1702338763443096300,89.45909643554687,9.786959648132324,0.21569842100143433,0.20280803740024567
1702338763542358800,89.55835888671875,9.779346466064453,0.22191376984119415,0.19648735225200653
1702338763641622800,89.65762280273438,9.78276538848877,0.2281099557876587,0.21230822801589966
1702338763740885200,89.75688525390625,9.778829574584961,0.21844695508480072,0.19665972888469696
1702338763840149200,89.85614916992188,9.780763626098633,0.21737435460090637,0.19953277707099915
1702338763939412000,89.95541186523438,9.772164344787598,0.2189449667930603,0.1941027194261551
1702338764038674400,90.05467431640625,9.777326583862305,0.21950040757656097,0.17817647755146027
1702338764137938400,90.1539384765625,9.770450592041016,0.21605277061462402,0.20502986013889313
1702338764237201000,90.25320092773437,9.76210880279541,0.22547633945941925,0.20440736413002014
1702338764336465000,90.35246484375,9.781012535095215,0.22921128571033478,0.19607554376125336
1702338764435727400,90.45172729492188,9.768707275390625,0.2258402556180954,0.20028933882713318
1702338764534990000,90.55098999023437,9.78886604309082,0.23196941614151,0.1928960382938385
1702338764634254000,90.65025415039062,9.778101921081543,0.21970152854919434,0.2020035833120346
1702338764733518000,90.74951806640625,9.777881622314453,0.22518904507160187,0.20255903899669647
1702338764832780500,90.84878051757812,9.77840805053711,0.220256969332695,0.20309533178806305
1702338764932043000,90.94804296875,9.775860786437988,0.22157858312129974,0.1984793245792389
1702338765031307300,91.04730737304688,9.773571968078613,0.22012290358543396,0.20211851596832275
1702338765130569700,91.14656982421874,9.778091430664062,0.21892580389976501,0.19933165609836578
1702338765229833700,91.24583374023437,9.788617134094238,0.2254859209060669,0.1977706253528595
1702338765329097700,91.34509765625,9.779068946838379,0.2194620966911316,0.20833386480808258
1702338765428360200,91.44436010742187,9.77338981628418,0.21608150005340576,0.19389203190803528
1702338765527623000,91.54362280273438,9.781462669372559,0.23389434814453125,0.1875617653131485
1702338765626887000,91.64288696289063,9.78494930267334,0.21038328111171722,0.19827821850776672
1702338765726149400,91.7421494140625,9.7865571975708,0.2199888378381729,0.20559489727020264
1702338765825411800,91.84141186523438,9.77938461303711,0.21656033396720886,0.19651608169078827
1702338765924675800,91.94067578125,9.773016929626465,0.2318449169397354,0.19590315222740173
1702338766023938300,92.03993823242187,9.77725887298584,0.21638795733451843,0.1978951394557953
1702338766123202600,92.13920263671875,9.775391578674316,0.21189641952514648,0.2021472305059433
1702338766222465000,92.23846508789063,9.77944278717041,0.2286941558122635,0.20019356906414032
1702338766321729000,92.33772900390625,9.78397274017334,0.22058258950710297,0.20676325261592865
1702338766420991500,92.43699145507813,9.78864574432373,0.20543208718299866,0.21564096212387085
1702338766520255500,92.53625537109374,9.775420188903809,0.2197589874267578,0.1963149607181549
1702338766619518200,92.63551831054687,9.783090591430664,0.23329101502895355,0.19561585783958435
1702338766718782200,92.7347822265625,9.773150444030762,0.2192801535129547,0.19361430406570435
1702338766818044700,92.83404467773437,9.789440155029297,0.22673089802265167,0.19380582869052887
1702338766917308700,92.93330859375,9.792668342590332,0.23535960912704468,0.19986794888973236
1702338767016571100,93.03257104492188,9.78427791595459,0.21525788307189941,0.20938730239868164
1702338767115833900,93.13183374023437,9.763124465942383,0.2135053277015686,0.2112356275320053
1702338767215097900,93.23109790039062,9.774232864379883,0.2051064819097519,0.18538783490657806
1702338767314360300,93.3303603515625,9.79322338104248,0.2215690016746521,0.2031049132347107
1702338767413624300,93.42962426757812,9.777688980102539,0.22751620411872864,0.21189641952514648
1702338767512886800,93.52888671875,9.779882431030273,0.2234652042388916,0.1984410136938095
1702338767612151000,93.62815112304688,9.785906791687012,0.23720793426036835,0.2092532366514206
1702338767711413500,93.72741357421874,9.803049087524414,0.22278526425361633,0.2055661678314209
1702338767810677500,93.82667749023437,9.770037651062012,0.21539196372032166,0.1904347985982895
1702338767909940000,93.92593994140626,9.766858100891113,0.21936632692813873,0.2086498886346817
1702338768009204000,94.02520385742187,9.77846622467041,0.2236759066581726,0.18737980723381042
1702338768108466400,94.12446655273438,9.777709007263184,0.21583248674869537,0.1942080706357956
1702338768207730700,94.22373071289063,9.78864574432373,0.22630952298641205,0.22136789560317993
1702338768306993200,94.3229931640625,9.775678634643555,0.22448034584522247,0.19469648599624634
1702338768406255600,94.42225561523438,9.77109146118164,0.2245282232761383,0.21499931812286377
1702338768505519600,94.52151953125,9.77038288116455,0.20684945583343506,0.1920628696680069
1702338768604782000,94.62078198242187,9.777661323547363,0.22053471207618713,0.19900603592395782
1702338768704046300,94.72004638671875,9.770699501037598,0.23136606812477112,0.20076817274093628
1702338768803308800,94.81930883789063,9.769559860229492,0.22359928488731384,0.19795259833335876
1702338768902572800,94.91857275390625,9.56258487701416,0.2319885641336441,0.2752853035926819
1702338769001835300,95.01783520507813,9.726521492004395,0.22269906103610992,0.22322578728199005
1702338769101099300,95.11709936523438,9.817912101745605,0.22562000155448914,0.2068590223789215
1702338769200361700,95.21636181640625,9.7925443649292,0.2223830223083496,0.20219512283802032
1702338769299626000,95.3156259765625,9.7766752243042,0.21181024610996246,0.191919207572937
1702338769398888400,95.41488842773437,9.731825828552246,0.2220286875963211,0.25760653614997864
1702338769498151000,95.51415087890625,9.80587387084961,0.22057300806045532,0.19717687368392944
1702338769597415000,95.61341479492188,9.765766143798828,0.22101354598999023,0.1862305849790573
1702338769696677400,95.71267749023437,9.778590202331543,0.22294805943965912,0.2123561054468155
1702338769795941600,95.81194165039062,9.775650024414062,0.220170795917511,0.19823989272117615
1702338769895204000,95.9112041015625,9.770660400390625,0.22097523510456085,0.19153612852096558
1702338769994468000,96.01046801757812,9.771177291870117,0.2227373719215393,0.21103452146053314
1702338770093730600,96.10973046875,9.8098783493042,0.2258019596338272,0.21058441698551178
1702338770192994600,96.20899462890625,9.786453247070312,0.20982784032821655,0.22245964407920837
1702338770292257300,96.30825732421874,9.787774085998535,0.24306893348693848,0.2183799296617508
1702338770391521300,96.40752124023437,9.772815704345703,0.2119634747505188,0.17990031838417053
1702338770490783700,96.50678369140626,9.800971031188965,0.23045627772808075,0.16451996564865112
1702338770590046200,96.60604614257812,9.780773162841797,0.22568702697753906,0.18301276862621307
1702338770689310200,96.70531030273438,9.759283065795898,0.20399555563926697,0.19371965527534485
1702338770788572700,96.80457275390626,9.76930046081543,0.23264937102794647,0.2003755271434784
1702338770887837000,96.9038369140625,9.785226821899414,0.22018036246299744,0.1941889226436615
1702338770987099400,97.00309936523438,9.780381202697754,0.2329270988702774,0.1912296712398529
1702338771086363400,97.10236328125,9.783885955810547,0.22815784811973572,0.20380403101444244
1702338771185625900,97.2016259765625,9.784843444824219,0.2114846259355545,0.19286730885505676
1702338771284889900,97.30088989257813,9.742609977722168,0.22518904507160187,0.19116264581680298
1702338771384152600,97.40015258789063,9.776951789855957,0.21535365283489227,0.2088605761528015
1702338771483416600,97.49941650390625,9.789287567138672,0.22317789494991302,0.21225076913833618
1702338771582679000,97.59867895507813,9.779854774475098,0.2247772365808487,0.20343053340911865
1702338771681943000,97.69794311523438,9.774070739746094,0.2214827984571457,0.1873510777950287
1702338771781205500,97.79720556640625,9.786548614501953,0.221090167760849,0.17981411516666412
1702338771880469800,97.8964697265625,9.787850379943848,0.21920353174209595,0.18886421620845795
1702338771979732200,97.99573217773437,9.724394798278809,0.22872287034988403,0.20299957692623138
1702338772078994700,98.09499462890625,9.769808769226074,0.21339040994644165,0.21322759985923767
1702338772178257200,98.19425708007813,9.774433135986328,0.219337597489357,0.19863255321979523
1702338772277521200,98.29352124023437,9.779825210571289,0.22387701272964478,0.21034498512744904
1702338772376785400,98.39278540039062,9.779644012451172,0.2262999415397644,0.2044839709997177
1702338772476048000,98.4920478515625,9.784786224365234,0.22131042182445526,0.2082763910293579
1702338772575312000,98.59131176757812,9.774270057678223,0.22587856650352478,0.20278887450695038
1702338772674574300,98.69057421875,9.7752103805542,0.2150088995695114,0.20778797566890717
1702338772773838300,98.78983837890625,9.763669967651367,0.22197122871875763,0.1999637335538864
1702338772873100800,98.88910083007812,9.781942367553711,0.23120325803756714,0.2102109044790268
1702338772972365000,98.98836499023437,9.772307395935059,0.23827095329761505,0.20967461168766022
1702338773071627500,99.08762744140626,9.775659561157227,0.2214253544807434,0.19146910309791565
1702338773170891500,99.1868916015625,9.776042938232422,0.22032402455806732,0.21436725556850433
1702338773270154000,99.28615405273437,9.775545120239258,0.23416250944137573,0.20080648362636566
1702338773369416400,99.38541650390626,9.778695106506348,0.21024921536445618,0.19214904308319092
1702338773468680700,99.4846806640625,9.775918006896973,0.2165890634059906,0.20186950266361237
1702338773567943200,99.58394311523438,9.77184772491455,0.2214636504650116,0.1960659623146057
1702338773667205600,99.68320556640624,9.78232479095459,0.234842449426651,0.1923980563879013
1702338773766469600,99.7824697265625,9.783551216125488,0.22402065992355347,0.19068381190299988
1702338773865733600,99.88173364257813,9.774290084838867,0.20716547966003418,0.2012087106704712
1702338773964996400,99.98099633789063,9.793472290039062,0.21652202308177948,0.19366218149662018
1702338774064258800,100.0802587890625,9.776664733886719,0.23376984894275665,0.21018217504024506
1702338774163522800,100.17952270507813,9.777737617492676,0.22833022475242615,0.18986019492149353
1702338774262785300,100.27878540039063,9.775036811828613,0.22326409816741943,0.19547219574451447
1702338774362049300,100.37804931640625,9.778197288513184,0.2138979732990265,0.19462944567203522
1702338774461311700,100.47731176757813,9.790369033813477,0.23643220961093903,0.2087935507297516
1702338774560576000,100.57657592773438,9.765326499938965,0.2400330752134323,0.18752345442771912
1702338774659838500,100.67583837890625,9.776013374328613,0.22345562279224396,0.205585315823555
1702338774759101000,100.77510083007813,9.785082817077637,0.22823446989059448,0.2028176188468933
1702338774858365000,100.87436499023437,9.77949047088623,0.2277556210756302,0.18890251219272614
1702338774957627400,100.97362744140625,9.769376754760742,0.22705651819705963,0.19757910072803497
1702338775056891600,101.0728916015625,9.772987365722656,0.2303413599729538,0.20297084748744965
1702338775156154000,101.17215405273437,9.780257225036621,0.2258211076259613,0.20484790205955505
1702338775255418000,101.27141821289062,9.775218963623047,0.21417570114135742,0.19863255321979523
1702338775354680600,101.3706806640625,9.888436317443848,0.22508369386196136,0.1880597472190857
1702338775453944600,101.46994458007812,9.703766822814941,0.22791843116283417,0.22861753404140472
1702338775553207000,101.56920703125,9.796019554138184,0.24394042789936066,0.18838536739349365
1702338775652471300,101.66847119140625,9.797810554504395,0.21262426674365997,0.18112614750862122
1702338775751733800,101.76773364257812,9.794726371765137,0.23506273329257965,0.19131587445735931
1702338775850997800,101.86699780273437,9.76712703704834,0.20621737837791443,0.2167327105998993
1702338775950260200,101.96626025390626,9.823965072631836,0.23288878798484802,0.21039286255836487
1702338776049522700,102.06552270507812,9.766973495483398,0.19594146311283112,0.20726124942302704
1702338776148787000,102.16478686523438,9.767796516418457,0.22745874524116516,0.20480002462863922
1702338776248049400,102.26404931640624,9.774270057678223,0.22964225709438324,0.20074902474880219
1702338776347313400,102.3633134765625,9.775420188903809,0.21923226118087769,0.2026260793209076
1702338776446575900,102.46257592773438,9.776761054992676,0.21815964579582214,0.18454506993293762
1702338776545839900,102.56183984375,9.760432243347168,0.2147120088338852,0.19513700902462006
1702338776645102600,102.6611025390625,9.784402847290039,0.22199995815753937,0.21419484913349152
1702338776744366600,102.76036669921875,9.790590286254883,0.21615810692310333,0.18602946400642395
1702338776843629000,102.85962915039063,9.785505294799805,0.22765026986598969,0.21113985776901245
1702338776942893000,102.95889306640625,9.785179138183594,0.21241357922554016,0.2027314305305481
1702338777042155500,103.05815551757813,9.775486946105957,0.22115719318389893,0.20137152075767517
1702338777141419800,103.15741967773438,9.791078567504883,0.22678835690021515,0.2186097651720047
1702338777240682200,103.25668212890625,9.780065536499023,0.2174222469329834,0.19651608169078827
1702338777339944700,103.35594482421875,9.777938842773438,0.21227949857711792,0.2125859558582306
1702338777439208700,103.45520874023437,9.79143238067627,0.21791066229343414,0.20601627230644226
1702338777538471200,103.55447119140625,9.790063858032227,0.22629037499427795,0.2097129225730896
1702338777637735200,103.65373510742188,9.7759370803833,0.21961532533168793,0.18930473923683167
1702338777736998000,103.75299780273437,9.769856452941895,0.2133616805076599,0.2082763910293579
1702338777836262000,103.85226196289062,9.772441864013672,0.23107875883579254,0.2091478854417801
1702338777935524400,103.9515244140625,9.786500930786133,0.22590729594230652,0.201170414686203
1702338778034788400,104.05078833007812,9.7647705078125,0.21987390518188477,0.20931068062782288
1702338778134050800,104.15005078125,9.765527725219727,0.22494961321353912,0.18915151059627533
1702338778233315000,104.24931518554688,9.767280578613281,0.21785318851470947,0.20605458319187164
1702338778332577500,104.34857763671874,9.78450870513916,0.23531171679496765,0.200251042842865
1702338778431840000,104.44784008789063,9.782506942749023,0.2392190545797348,0.19774191081523895
1702338778531104000,104.54710400390626,9.781386375427246,0.21226035058498383,0.21224120259284973
1702338778630366500,104.64636645507812,9.782258033752441,0.21925142407417297,0.20040427148342133
1702338778729630700,104.74563061523438,9.78712272644043,0.22039104998111725,0.20828595757484436
1702338778828893200,104.84489306640624,9.785820007324219,0.23178745806217194,0.204962819814682
1702338778928157200,104.9441572265625,9.775650024414062,0.22629037499427795,0.18549317121505737
1702338779027419600,105.04341967773438,9.778005599975586,0.22845472395420074,0.19440917670726776
1702338779126683600,105.14268359375,9.782238960266113,0.2130073457956314,0.20493407547473907
1702338779225946000,105.24194604492187,9.75828742980957,0.221798837184906,0.2001073807477951
1702338779325210400,105.34121044921875,9.770048141479492,0.22670216858386993,0.19574035704135895
1702338779424472800,105.44047290039063,9.793069839477539,0.21599529683589935,0.20359334349632263
1702338779523736800,105.53973681640625,9.783952713012695,0.21923226118087769,0.211379274725914
1702338779622999300,105.63899926757813,9.803278923034668,0.2280716598033905,0.1924172043800354
1702338779722261800,105.73826171875,9.776750564575195,0.22707566618919373,0.2047521322965622
1702338779821526000,105.83752612304687,9.773140907287598,0.2234652042388916,0.20563319325447083
1702338779920788500,105.93678857421875,9.784614562988281,0.21013429760932922,0.20412005484104156
1702338780020052500,106.03605249023437,9.773331642150879,0.22416432201862335,0.19156485795974731
1702338780119315000,106.13531494140625,9.77659797668457,0.22083158791065216,0.20040427148342133
1702338780218579000,106.23457885742188,9.769702911376953,0.22303426265716553,0.21747012436389923
1702338780317841700,106.33384155273437,9.779117584228516,0.2063801884651184,0.20707930624485016
1702338780417104100,106.43310424804687,9.76659107208252,0.2331569343805313,0.19467732310295105
1702338780516368100,106.5323681640625,9.789593696594238,0.2278609573841095,0.19363345205783844
1702338780615632100,106.63163208007812,9.780083656311035,0.23383690416812897,0.21588996052742004
1702338780714894600,106.73089453125,9.7756986618042,0.21236568689346313,0.1956062763929367
1702338780814157000,106.83015698242187,9.77453899383545,0.22054427862167358,0.19331742823123932
1702338780913421300,106.92942138671874,9.786672592163086,0.2263382524251938,0.19581696391105652
1702338781012685300,107.02868530273437,9.771004676818848,0.2167327105998993,0.20438821613788605
1702338781111946200,107.1279462890625,9.774041175842285,0.22453780472278595,0.19167020916938782
1702338781211210200,107.22721020507812,9.790302276611328,0.22380998730659485,0.2091095745563507
1702338781310472700,107.32647265625,9.776042938232422,0.22837811708450317,0.19841228425502777
1702338781409737000,107.42573706054688,9.783196449279785,0.23030304908752441,0.20888930559158325
1702338781509001000,107.5250009765625,9.785906791687012,0.2181117683649063,0.21270088851451874
1702338781608263400,107.62426342773438,9.775870323181152,0.2156696915626526,0.20670579373836517
1702338781707526000,107.72352587890624,9.788042068481445,0.22495919466018677,0.19803878664970398
1702338781806790000,107.82278979492187,9.778829574584961,0.21465453505516052,0.20171627402305603
1702338781906052400,107.92205224609376,9.798577308654785,0.21413740515708923,0.20079690217971802
1702338782005316600,108.02131665039063,9.777776718139648,0.21817882359027863,0.19965727627277374
1702338782104580600,108.12058056640625,9.777220726013184,0.22743959724903107,0.2151525467634201
1702338782203843000,108.21984301757813,9.771149635314941,0.235053151845932,0.19293436408042908
1702338782303105500,108.31910546875,9.787409782409668,0.2231491655111313,0.19813455641269684
1702338782402369800,108.41836987304687,9.76984691619873,0.21815964579582214,0.19935081899166107
1702338782501632300,108.51763232421875,9.78384780883789,0.22886653244495392,0.20187908411026
1702338782600894700,108.61689477539062,9.772192001342773,0.23031261563301086,0.199168860912323
1702338782700158700,108.71615869140625,9.788875579833984,0.232381209731102,0.19809624552726746
1702338782799421200,108.81542114257813,9.773964881896973,0.23822306096553802,0.18488024175167084
1702338782898685200,108.91468530273437,9.761695861816406,0.21634964644908905,0.1954817771911621
1702338782997948000,109.01394799804687,9.776042938232422,0.2349478006362915,0.2086498886346817
1702338783097212000,109.1132119140625,9.786299705505371,0.22544759511947632,0.20321983098983765
1702338783196474400,109.21247436523437,9.779165267944336,0.2284068465232849,0.20572896301746368
1702338783295738400,109.31173828125,9.76069164276123,0.227506622672081,0.2034209668636322
1702338783395000800,109.41100073242187,9.766916275024414,0.21144631505012512,0.20599710941314697
1702338783494263300,109.51026318359375,9.766159057617188,0.22376208007335663,0.20999065041542053
1702338783593527600,109.60952758789062,9.76930046081543,0.22199995815753937,0.19938911497592926
1702338783692790000,109.7087900390625,9.768094062805176,0.2327163964509964,0.20095013082027435
1702338783792054000,109.80805395507812,9.76832389831543,0.23072442412376404,0.20426371693611145
1702338783891316500,109.90731640625,9.782258033752441,0.22995828092098236,0.1968129575252533
1702338783990580500,110.00658056640626,9.774462699890137,0.22908678650856018,0.20390936732292175
1702338784089843200,110.10584326171875,9.782957077026367,0.22018994390964508,0.1962479203939438
1702338784189107200,110.20510717773438,9.770488739013672,0.21311268210411072,0.19540517032146454
1702338784288369700,110.30436962890624,9.778264999389648,0.2215881496667862,0.20653341710567474
1702338784387633700,110.40363354492187,9.77818775177002,0.2205251306295395,0.1810782551765442
1702338784486896000,110.50289624023438,9.780313491821289,0.23885513842105865,0.19600850343704224
1702338784586160400,110.60216040039063,9.763190269470215,0.23218968510627747,0.19675549864768982
1702338784685422800,110.7014228515625,9.7781400680542,0.233674094080925,0.1970619559288025
1702338784784686800,110.80068676757813,9.772690773010254,0.236384317278862,0.20709845423698425
1702338784883949300,110.89994921875,9.770861625671387,0.2303222119808197,0.21723070740699768
1702338784983211800,110.99921166992188,9.779126167297363,0.21582292020320892,0.19105729460716248
1702338785082476000,111.09847607421875,9.772259712219238,0.2177382856607437,0.1956445872783661
1702338785181738500,111.19773852539062,9.762950897216797,0.2239440530538559,0.1937483847141266
1702338785281002500,111.29700244140625,9.76961612701416,0.23878809809684753,0.18555063009262085
1702338785380265000,111.39626489257813,9.766389846801758,0.21877256035804749,0.20207062363624573
1702338785479529000,111.49552905273437,9.766274452209473,0.2287994772195816,0.21761378645896912
1702338785578791400,111.59479150390625,9.773419380187988,0.23148100078105927,0.2028559297323227
1702338785678055700,111.6940556640625,9.777392387390137,0.22539971768856049,0.20149601995944977
1702338785777318100,111.79331811523437,9.772662162780762,0.22851219773292542,0.20454144477844238
1702338785876582100,111.89258203125,9.779605865478516,0.2308201938867569,0.20715591311454773
1702338785975844600,111.9918447265625,9.769319534301758,0.22588813304901123,0.20295168459415436
1702338786075108600,112.09110864257812,9.789249420166016,0.21747012436389923,0.19611383974552155
1702338786174371300,112.19037133789062,9.770516395568848,0.22220106422901154,0.21355320513248444
1702338786273633800,112.2896337890625,9.76940631866455,0.22676920890808105,0.1955200731754303
1702338786372897800,112.38889770507812,9.78254508972168,0.2229672074317932,0.20034679770469666
1702338786472160300,112.48816015625,9.79081916809082,0.23401884734630585,0.1972917914390564
1702338786571424300,112.58742431640626,9.77802562713623,0.23401884734630585,0.19136375188827515
1702338786670687000,112.68668701171875,9.772221565246582,0.23568521440029144,0.20867861807346344
1702338786769951000,112.78595092773438,9.776924133300781,0.22862710058689117,0.19036777317523956
1702338786869213400,112.88521337890624,9.777593612670898,0.22414515912532806,0.21707747876644135
1702338786968477400,112.9844775390625,9.775822639465332,0.21489396691322327,0.187916100025177
1702338787067740000,113.08373999023438,9.773619651794434,0.22395363450050354,0.19452409446239471
1702338787167004200,113.18300415039063,9.791422843933105,0.2261945903301239,0.21616767346858978
1702338787266266600,113.2822666015625,9.765748023986816,0.21413740515708923,0.21058441698551178
1702338787365529000,113.38152905273438,9.779117584228516,0.22033359110355377,0.1963532716035843
1702338787464793000,113.48079296875,9.785916328430176,0.23506273329257965,0.20274099707603455
1702338787564055600,113.5800556640625,9.780227661132812,0.223091721534729,0.22649148106575012
1702338787663319600,113.67931958007813,9.760623931884766,0.21424275636672974,0.19605638086795807
1702338787762582300,113.77858227539062,9.780630111694336,0.22770772874355316,0.20295168459415436
1702338787861846300,113.87784619140625,9.79371166229248,0.22818656265735626,0.19580738246440887
1702338787961108700,113.97710864257813,9.785255432128906,0.23905624449253082,0.18928557634353638
1702338788060371200,114.07637109375,9.782947540283203,0.22825361788272858,0.19790470600128174
1702338788159635200,114.17563525390625,9.77353286743164,0.22689370810985565,0.19778020679950714
1702338788258899500,114.2748994140625,9.76966381072998,0.23159591853618622,0.20029892027378082
1702338788358162000,114.37416186523437,9.780208587646484,0.22812911868095398,0.19063590466976166
1702338788457426000,114.47342602539062,9.771934509277344,0.2123561054468155,0.19280028343200684
1702338788556688400,114.5726884765625,9.782459259033203,0.2189641147851944,0.2032964527606964
1702338788655950800,114.67195092773437,9.768610954284668,0.21911734342575073,0.1952710896730423
1702338788755215000,114.77121508789062,9.792055130004883,0.21250933408737183,0.19467732310295105
1702338788854477600,114.8704775390625,9.779997825622559,0.2297380268573761,0.1940452605485916
1702338788953740000,114.96973999023437,9.76989459991455,0.2284451425075531,0.20742405951023102
1702338789053004000,115.06900415039063,9.778685569763184,0.21876299381256104,0.19903478026390076
1702338789152268000,115.16826806640626,9.781396865844727,0.22762155532836914,0.1935185343027115
1702338789251530500,115.26753051757812,9.771886825561523,0.22283314168453217,0.2099619209766388
1702338789350794800,115.36679467773438,9.788081169128418,0.2320077270269394,0.2040051370859146
1702338789450057200,115.46605712890624,9.78174114227295,0.22364717721939087,0.20268353819847107
1702338789549319700,115.56531958007812,9.787208557128906,0.22768858075141907,0.18992723524570465
1702338789648583700,115.66458374023438,9.780956268310547,0.230427548289299,0.20351672172546387
1702338789747846100,115.76384619140624,9.78125286102295,0.22999659180641174,0.2059013545513153
1702338789847110400,115.8631103515625,9.762941360473633,0.22168393433094025,0.20724210143089294
1702338789946372900,115.96237280273438,9.774998664855957,0.21228908002376556,0.2001456916332245
1702338790045636900,116.06163696289063,9.777948379516602,0.21980686485767365,0.20102675259113312
1702338790144899300,116.1608994140625,9.782995223999023,0.22874203324317932,0.18782033026218414
1702338790244161800,116.26016186523438,9.771167755126953,0.223551407456398,0.20253989100456238
1702338790343425800,116.35942578125,9.777872085571289,0.21174319088459015,0.20338264107704163
1702338790442688500,116.4586884765625,9.783120155334473,0.23222798109054565,0.19840270280838013
1702338790541952500,116.55795239257813,9.769013404846191,0.2239057421684265,0.19948488473892212
1702338790641215000,116.65721508789062,9.769923210144043,0.2111685872077942,0.19484013319015503
1702338790740479000,116.75647900390625,9.782976150512695,0.23024559020996094,0.20064367353916168
1702338790839741400,116.85574145507813,9.768773078918457,0.23495738208293915,0.2047138214111328
1702338790939005700,116.95500561523437,9.777623176574707,0.21709662675857544,0.206045001745224
1702338791038268200,117.05426806640625,9.772863388061523,0.22716185450553894,0.20709845423698425
1702338791137532200,117.1535322265625,9.7687349319458,0.2239440530538559,0.19990625977516174
1702338791236794600,117.25279467773437,9.781606674194336,0.22407811880111694,0.21133139729499817
1702338791336057000,117.35205712890625,9.777498245239258,0.2170296013355255,0.19843144714832306
1702338791435321300,117.4513212890625,9.781204223632812,0.23233333230018616,0.1948784440755844
1702338791534583800,117.55058374023437,9.789813995361328,0.23646093904972076,0.2090904265642166
1702338791633847800,117.64984790039063,9.779864311218262,0.2264052927494049,0.20455101132392883
1702338791733110300,117.7491103515625,9.769186019897461,0.21892580389976501,0.20611202716827393
1702338791832374300,117.84837426757812,9.780524253845215,0.20920534431934357,0.20072029531002045
1702338791931636700,117.94763671875,9.762787818908691,0.2346988022327423,0.20127573609352112
1702338792030901000,118.04690087890626,9.773552894592285,0.2310308814048767,0.20872649550437927
1702338792130163500,118.14616357421875,9.78615665435791,0.2120688110589981,0.19932208955287933
1702338792229427500,118.24542749023438,9.776732444763184,0.22533269226551056,0.21007682383060455
1702338792328690000,118.34468994140624,9.794708251953125,0.22290976345539093,0.20430201292037964
1702338792427952400,118.44395239257813,9.777125358581543,0.222009539604187,0.1905018389225006
1702338792527216600,118.54321655273438,9.79056167602539,0.23297497630119324,0.21238483488559723
1702338792626480600,118.64248071289063,9.766264915466309,0.23150014877319336,0.20634187757968903
1702338792725743000,118.7417431640625,9.77076530456543,0.22035275399684906,0.20312407612800598
1702338792825005600,118.84100561523438,9.776415824890137,0.21774786710739136,0.1914786696434021
1702338792924269600,118.94026953125,9.780763626098633,0.22864624857902527,0.19857509434223175
1702338793023532300,119.0395322265625,9.76046085357666,0.2178819328546524,0.21337126195430756
1702338793122796300,119.13879638671875,9.777929306030273,0.22209572792053223,0.21603360772132874
1702338793222058800,119.23805883789062,9.778264999389648,0.22432711720466614,0.19567331671714783
1702338793321322800,119.33732275390625,9.781070709228516,0.2300061583518982,0.2134191393852234
1702338793420585200,119.43658520507813,9.770297050476074,0.21806389093399048,0.193001389503479
1702338793519849500,119.53584936523437,9.789603233337402,0.2280525118112564,0.20415836572647095
1702338793619112000,119.63511181640625,9.786443710327148,0.22776520252227783,0.1960851103067398
1702338793718376000,119.7343759765625,9.771590232849121,0.22624248266220093,0.18679562211036682
1702338793817638400,119.83363842773437,9.765028953552246,0.22674047946929932,0.19593188166618347
1702338793916902400,119.93290234375,9.767585754394531,0.23277387022972107,0.20976080000400543
1702338794016164900,120.03216479492187,9.778350830078125,0.23242910206317902,0.1900613158941269
1702338794115427600,120.13142749023437,9.768017768859863,0.23143310844898224,0.19227354228496552
1702338794214691600,120.23069165039063,9.769089698791504,0.2322184145450592,0.19369091093540192
1702338794313954000,120.3299541015625,9.782267570495605,0.21817882359027863,0.20301872491836548
1702338794413218000,120.42921801757812,9.771004676818848,0.23378899693489075,0.19813455641269684
1702338794512480500,120.52848046875,9.772192001342773,0.22018994390964508,0.20371782779693604
1702338794611744800,120.62774487304688,9.780888557434082,0.23279301822185516,0.19376753270626068
1702338794711007200,120.72700732421875,9.772719383239746,0.23039881885051727,0.19257999956607819
1702338794810271200,120.82627124023438,9.762127876281738,0.21613894402980804,0.20255903899669647
1702338794909533700,120.92553369140624,9.767796516418457,0.21912692487239838,0.20551827549934387
1702338795008796200,121.02479614257813,9.771149635314941,0.23403801023960114,0.21226035058498383
1702338795108060400,121.12406030273438,9.779585838317871,0.21596656739711761,0.20871692895889282
1702338795207323000,121.22332299804688,9.775602340698242,0.20003075897693634,0.19843144714832306
1702338795306587000,121.3225869140625,9.78984260559082,0.22305341064929962,0.2011033594608307
1702338795405849300,121.42184936523438,9.779834747314453,0.2174222469329834,0.20811358094215393
1702338795505113300,121.52111328125,9.779251098632812,0.21560265123844147,0.20363163948059082
1702338795604375800,121.62037573242188,9.77993106842041,0.22491130232810974,0.198335662484169
1702338795703640000,121.71964013671875,9.779260635375977,0.2160240262746811,0.1933748722076416
1702338795802902500,121.81890258789062,9.770354270935059,0.21303607523441315,0.20539376139640808
1702338795902166500,121.91816650390625,9.776789665222168,0.22554337978363037,0.2084392011165619
1702338796001429000,122.01742895507813,9.784001350402832,0.23214179277420044,0.21835120022296906
1702338796100693000,122.11669287109375,9.780850410461426,0.20963630080223083,0.20644721388816833
1702338796199955700,122.21595581054687,9.776684761047363,0.2201516479253769,0.18538783490657806
1702338796299218200,122.31521826171875,9.775774002075195,0.22949859499931335,0.2008352130651474
1702338796398482200,122.41448217773437,9.77131175994873,0.23015938699245453,0.206753671169281
1702338796497746200,122.51374609375,9.786443710327148,0.23170126974582672,0.19007088243961334
1702338796597007000,122.61300708007812,9.771828651428223,0.21818839013576508,0.19469648599624634
1702338796696271000,122.71227099609375,9.788386344909668,0.20944476127624512,0.2035645991563797
1702338796795535400,122.81153540039062,9.772671699523926,0.23774422705173492,0.2099619209766388
1702338796894797800,122.9107978515625,9.775803565979004,0.2275257706642151,0.19188091158866882
1702338796994061800,123.01006176757812,9.770468711853027,0.2198164463043213,0.21014387905597687
1702338797093324300,123.10932421875,9.777957916259766,0.21795853972434998,0.20525971055030823
1702338797192586800,123.20858666992187,9.77659797668457,0.22208614647388458,0.20270270109176636
1702338797291851000,123.30785107421875,9.779653549194336,0.23102131485939026,0.20074902474880219
1702338797391115000,123.40711499023438,9.781261444091797,0.21982601284980774,0.1993124932050705
1702338797490377500,123.50637744140624,9.785055160522461,0.2236088514328003,0.19529981911182404
1702338797589641500,123.60564135742187,9.779807090759277,0.220007985830307,0.20552784204483032
1702338797688904000,123.70490405273438,9.781606674194336,0.2147120088338852,0.1990443617105484
1702338797788166700,123.80416674804688,9.780343055725098,0.208046555519104,0.205374613404274
1702338797887429000,123.90342919921875,9.782689094543457,0.21711578965187073,0.2105269432067871
1702338797986693000,124.00269311523438,9.77507495880127,0.214003324508667,0.210048109292984
1702338798085955600,124.10195556640625,9.7756986618042,0.22675006091594696,0.2094830721616745
1702338798185219600,124.20121948242188,9.7576265335083,0.22068794071674347,0.1982111632823944
1702338798284482000,124.30048193359374,9.77743148803711,0.22236387431621552,0.18982188403606415
1702338798383746300,124.39974633789062,9.777938842773438,0.21428105235099792,0.21157081425189972
1702338798483010300,124.49901025390625,9.778016090393066,0.22049640119075775,0.2100864052772522
1702338798582272800,124.59827270507813,9.763381958007812,0.2272767722606659,0.20790289342403412
1702338798681535200,124.69753515625,9.770651817321777,0.2345072627067566,0.20434033870697021
1702338798780799200,124.79679931640625,9.77109146118164,0.22883780300617218,0.2017928957939148
1702338798880062000,124.89606201171875,9.784843444824219,0.23349212110042572,0.19348980486392975
1702338798979326000,124.99532592773437,9.77938461303711,0.21755632758140564,0.20230045914649963
1702338799078588400,125.09458837890625,9.779366493225098,0.20684945583343506,0.19753122329711914
1702338799177851000,125.19385083007812,9.785494804382324,0.2209465056657791,0.18869182467460632
1702338799277115000,125.29311499023437,9.773763656616211,0.22418347001075745,0.18961119651794434
1702338799376377600,125.39237768554688,9.767280578613281,0.22808124125003815,0.18832790851593018
