time,seconds_elapsed,z,y,x
1702338649592957400,0.41495751953125,9.6575927734375,2.9733734130859375,0.384429931640625
1702338649691956500,0.51395654296875,10.0067138671875,2.43597412109375,0.5060272216796875
1702338649790925000,0.612925048828125,7.6844940185546875,2.894927978515625,1.0159759521484375
1702338649889924000,0.711924072265625,9.3673095703125,2.4202880859375,2.275146484375
1702338649988923100,0.810923095703125,8.335647583007812,2.1496124267578125,2.0005645751953125
1702338650087922200,0.909922119140625,8.174819946289062,3.2636566162109375,0.4785614013671875
1702338650186921200,1.008921142578125,8.586700439453125,4.01287841796875,-0.48248291015625
1702338650285920300,1.107920166015625,7.9708404541015625,4.8405609130859375,-1.7691192626953125
1702338650384888800,1.206888916015625,8.312118530273438,5.09161376953125,-1.9299468994140625
1702338650483887600,1.3058876953125,7.4805145263671875,5.2210540771484375,-2.08685302734375
1702338650583741200,1.4057412109375,6.8881988525390625,5.523101806640625,-1.816192626953125
1702338650682648800,1.50464892578125,7.97869873046875,4.0756378173828125,-2.3222198486328125
1702338650782227700,1.604227783203125,6.93133544921875,3.208740234375,-2.051544189453125
1702338650880677400,1.702677490234375,8.492568969726562,2.4987335205078125,-2.8556976318359375
1702338650979615200,1.801615234375,9.41046142578125,1.85150146484375,-3.3538818359375
1702338651078644700,1.900644775390625,9.163330078125,0.6590118408203125,-3.0243682861328125
1702338651177643800,1.999643798828125,10.077316284179688,0.619781494140625,-3.903045654296875
1702338651276642800,2.098642822265625,8.323883056640625,0.2863616943359375,-3.785369873046875
1702338651375611400,2.197611328125,8.245437622070312,0,-3.6951446533203125
1702338651474610400,2.2966103515625,9.955703735351562,0.678619384765625,-3.42840576171875
1702338651573609500,2.395609375,8.822067260742188,-0.0902252197265625,-3.1616668701171875
1702338651672608500,2.4946083984375,8.967193603515625,0.5413360595703125,-4.142333984375
1702338651771576800,2.593576904296875,8.159133911132812,0.45111083984375,-3.910888671875
1702338651870667500,2.69266748046875,8.990737915039062,-0.196136474609375,-3.9697265625
1702338651969544400,2.79154443359375,7.48443603515625,0.007843017578125,-4.354156494140625
1702338652068574000,2.890573974609375,7.48443603515625,0.4550323486328125,-6.0958099365234375
1702338652166885600,2.9888857421875,8.390579223632812,0.0863037109375,-4.51104736328125
1702338652266342400,3.08834228515625,9.649749755859375,-0.502105712890625,-2.9812164306640625
1702338652365341400,3.187341552734375,9.037811279296875,0.1569061279296875,-2.6674041748046875
1702338652464371000,3.286370849609375,8.833831787109375,0.1255340576171875,-2.165313720703125
1702338652563370000,3.385369873046875,9.241790771484375,0.0470733642578125,-0.706085205078125
1702338652662124800,3.484124755859375,7.8610076904296875,-0.1255340576171875,0.18829345703125
1702338652761184800,3.583184814453125,9.492843627929688,0.0313873291015625,0.1255340576171875
1702338652860336400,3.68233642578125,9.728195190429688,-0.0313873291015625,0.1725921630859375
1702338652959335400,3.78133544921875,9.665435791015625,-0.0470733642578125,0.1412200927734375
1702338653058273500,3.8802734375,9.712509155273438,-0.0313873291015625,0.1725921630859375
1702338653157272600,3.9792724609375,9.728195190429688,-0.01568603515625,0.2039794921875
1702338653256241200,4.0782412109375,9.712509155273438,-0.01568603515625,0.2039794921875
1702338653355270700,4.177270751953125,9.681121826171875,-0.01568603515625,0.1725921630859375
1702338653454269700,4.276269775390625,9.712509155273438,-0.0470733642578125,0.1569061279296875
1702338653553268700,4.375268798828125,9.712509155273438,-0.0313873291015625,0.1725921630859375
1702338653652298200,4.47429833984375,9.712509155273438,-0.0470733642578125,0.1569061279296875
1702338653751449900,4.573449951171875,9.712509155273438,-0.0470733642578125,0.2196807861328125
1702338653850570800,4.67257080078125,9.681121826171875,0,0.18829345703125
1702338653949600500,4.7716005859375,9.665435791015625,-0.0470733642578125,0.18829345703125
1702338654048630000,4.870630126953125,9.681121826171875,-0.0313873291015625,0.1569061279296875
1702338654147598300,4.969598388671875,9.728195190429688,-0.0470733642578125,0.1412200927734375
1702338654246628000,5.068628173828125,9.712509155273438,-0.01568603515625,0.1569061279296875
1702338654345627100,5.167627197265625,9.696823120117188,-0.0470733642578125,0.1725921630859375
1702338654840134000,5.6621337890625,9.767425537109375,-0.0392303466796875,0.1569061279296875
1702338654998886400,5.820886474609375,9.649749755859375,0,0.196136474609375
1702338655156357000,5.978357177734375,9.728195190429688,-0.0392303466796875,0.1176910400390625
1702338655314590700,6.1365908203125,9.688980102539062,0,0.1569061279296875
1702338655472549600,6.294549560546875,9.728195190429688,0,0.1176910400390625
1702338655630722300,6.452722412109375,9.728195190429688,-0.0392303466796875,0.1569061279296875
1702338655788071000,6.61007080078125,9.649749755859375,-0.0392303466796875,0.2353668212890625
1702338655946976000,6.76897607421875,9.688980102539062,-0.078460693359375,0.2353668212890625
1702338656105118000,6.927117919921875,9.649749755859375,0,0.196136474609375
1702338656263382300,7.08538232421875,9.649749755859375,-0.078460693359375,0.196136474609375
1702338656421371600,7.24337158203125,9.728195190429688,-0.0392303466796875,0.1569061279296875
1702338656579483100,7.401483154296875,9.688980102539062,0,0.1569061279296875
1702338656737439000,7.55943896484375,9.728195190429688,-0.0392303466796875,0.1569061279296875
1702338656896832500,7.71883251953125,9.688980102539062,0,0.2353668212890625
1702338657053692700,7.875692626953125,9.688980102539062,-0.0392303466796875,0.2353668212890625
1702338657211743200,8.0337431640625,9.688980102539062,-0.0392303466796875,0.1569061279296875
1702338657369885400,8.191885498046876,9.728195190429688,-0.078460693359375,0.1569061279296875
1702338657528332500,8.35033251953125,9.728195190429688,0,0.1569061279296875
1702338657686413600,8.50841357421875,9.728195190429688,0,0.1569061279296875
1702338657844311600,8.6663115234375,9.688980102539062,-0.0392303466796875,0.1569061279296875
1702338658002453800,8.824453857421876,9.767425537109375,-0.078460693359375,0.1569061279296875
1702338658160687400,8.982687255859375,9.728195190429688,0,0.1569061279296875
1702338658318798800,9.140798828125,9.728195190429688,0,0.196136474609375
1702338658476880000,9.2988798828125,9.728195190429688,-0.078460693359375,0.1569061279296875
1702338658635296800,9.457296875,9.688980102539062,0,0.1569061279296875
1702338658793408300,9.615408203125,9.649749755859375,0,0.196136474609375
1702338658951550500,9.773550537109376,9.728195190429688,0,0.1569061279296875
1702338659109570300,9.9315703125,9.728195190429688,0,0.1569061279296875
1702338659267468300,10.08946826171875,9.688980102539062,-0.078460693359375,0.196136474609375
1702338659425610500,10.247610595703126,9.688980102539062,0,0.1569061279296875
1702338659583752400,10.40575244140625,9.728195190429688,0,0.2353668212890625
1702338659742932200,10.56493212890625,9.728195190429688,0,0.196136474609375
1702338659900250400,10.72225048828125,9.688980102539062,-0.078460693359375,0.2353668212890625
1702338660058331400,10.880331298828125,9.728195190429688,-0.078460693359375,0.196136474609375
1702338660216382000,11.0383818359375,9.688980102539062,0,0.196136474609375
1702338660374615600,11.196615478515625,9.688980102539062,-0.0392303466796875,0.1569061279296875
1702338660532727000,11.35472705078125,9.728195190429688,-0.0392303466796875,0.2353668212890625
1702338660691113500,11.513113525390626,9.728195190429688,-0.0392303466796875,0.1569061279296875
1702338660848980700,11.670980712890625,9.728195190429688,0,0.1569061279296875
1702338661007123000,11.829123046875,9.728195190429688,-0.0392303466796875,0.196136474609375
1702338661363140900,12.185140869140625,9.712509155273438,-0.078460693359375,0.1569061279296875
1702338661462170600,12.284170654296876,9.696823120117188,-0.078460693359375,0.2039794921875
1702338662391827500,13.213827392578125,9.688980102539062,-0.078460693359375,0.1569061279296875
1702338662550244400,13.372244384765626,9.728195190429688,-0.078460693359375,0.196136474609375
1702338662708355800,13.53035595703125,9.649749755859375,-0.078460693359375,0.1569061279296875
1702338662866406400,13.688406494140626,9.649749755859375,-0.0392303466796875,0.1569061279296875
1702338663024487400,13.8464873046875,9.649749755859375,-0.0392303466796875,0.196136474609375
1702338663182660000,14.00466015625,9.649749755859375,-0.078460693359375,0.196136474609375
1702338663340741000,14.1627412109375,9.728195190429688,-0.0392303466796875,0.1569061279296875
1702338663498913800,14.320913818359376,9.688980102539062,-0.0392303466796875,0.196136474609375
1702338663657055700,14.4790556640625,9.688980102539062,-0.0392303466796875,0.1569061279296875
1702338663815167200,14.637167236328125,9.728195190429688,0,0.1569061279296875
1702338663973279000,14.795279052734376,9.649749755859375,-0.078460693359375,0.1569061279296875
1702338664131390500,14.953390380859375,9.688980102539062,-0.078460693359375,0.1569061279296875
1702338664289532700,15.11153271484375,9.688980102539062,-0.0392303466796875,0.1569061279296875
1702338664447277800,15.26927783203125,9.728195190429688,-0.078460693359375,0.1569061279296875
1702338664605755600,15.427755615234375,9.688980102539062,-0.0392303466796875,0.196136474609375
1702338664763836700,15.585836669921875,9.728195190429688,-0.0392303466796875,0.196136474609375
1702338664922039800,15.744039794921875,9.688980102539062,0,0.196136474609375
1702338665080090400,15.90209033203125,9.688980102539062,0,0.1569061279296875
1702338665238171400,16.06017138671875,9.728195190429688,-0.078460693359375,0.1176910400390625
1702338665396283100,16.218283203125,9.728195190429688,-0.078460693359375,0.196136474609375
1702338665554394600,16.37639453125,9.728195190429688,-0.0392303466796875,0.1569061279296875
1702338665712567300,16.5345673828125,9.649749755859375,0,0.1176910400390625
1702338666068524300,16.890524169921875,9.728195190429688,-0.0470733642578125,0.2039794921875
1702338666167492900,16.989492919921876,9.665435791015625,-0.0470733642578125,0.18829345703125
1702338666266522400,17.0885224609375,9.665435791015625,-0.0313873291015625,0.2196807861328125
1702338666365521400,17.187521484375,9.696823120117188,-0.01568603515625,0.1725921630859375
1702338666464490000,17.286489990234376,9.728195190429688,-0.062774658203125,0.1725921630859375
1702338666563422200,17.385422119140625,9.649749755859375,-0.0470733642578125,0.1725921630859375
1702338666662207500,17.48420751953125,9.634063720703125,-0.062774658203125,0.2039794921875
1702338666761145600,17.5831455078125,9.712509155273438,-0.062774658203125,0.2039794921875
1702338666860205600,17.68220556640625,9.696823120117188,-0.078460693359375,0.1725921630859375
1702338666960730600,17.782730712890626,9.696823120117188,-0.01568603515625,0.1569061279296875
1702338667057776400,17.8797763671875,9.696823120117188,0.0313873291015625,0.2353668212890625
1702338667156928000,17.978927978515625,9.696823120117188,0,0.1725921630859375
1702338667256140800,18.078140869140626,9.712509155273438,-0.0470733642578125,0.2039794921875
1702338667355048200,18.177048095703125,9.696823120117188,-0.0313873291015625,0.1725921630859375
1702338667454108200,18.276108154296875,9.712509155273438,-0.062774658203125,0.1725921630859375
1702338667552802000,18.374802001953125,9.681121826171875,0,0.2353668212890625
1702338668087439600,18.909439697265626,9.649749755859375,-0.078460693359375,0.1176910400390625
1702338668245612000,19.067612060546875,9.728195190429688,-0.078460693359375,0.1569061279296875
1702338668403662600,19.22566259765625,9.728195190429688,-0.078460693359375,0.2353668212890625
1702338668561743600,19.38374365234375,9.649749755859375,-0.078460693359375,0.1569061279296875
1702338668917761800,19.73976171875,9.696823120117188,-0.0470733642578125,0.1569061279296875
1702338669016791300,19.838791259765625,9.712509155273438,-0.0470733642578125,0.1725921630859375
1702338669115973400,19.937973388671875,9.712509155273438,-0.01568603515625,0.1412200927734375
1702338669214728400,20.036728515625,9.75958251953125,-0.0470733642578125,0.18829345703125
1702338669313758000,20.135758056640626,9.712509155273438,0,0.2039794921875
1702338669412757000,20.234757080078126,9.681121826171875,-0.0313873291015625,0.1725921630859375
1702338669946784000,20.768783935546875,9.649749755859375,-0.0392303466796875,0.1176910400390625
1702338670104926200,20.92692626953125,9.649749755859375,0,0.196136474609375
1702338670263037700,21.08503759765625,9.728195190429688,0,0.1569061279296875
1702338670421240800,21.24324072265625,9.767425537109375,0,0.1176910400390625
1702338670777197800,21.59919775390625,9.728195190429688,-0.0470733642578125,0.1569061279296875
1702338670876196900,21.69819677734375,9.712509155273438,-0.01568603515625,0.2039794921875
1702338670975196000,21.79719580078125,9.712509155273438,-0.0313873291015625,0.1725921630859375
1702338671074225400,21.896225341796875,9.665435791015625,-0.0470733642578125,0.18829345703125
1702338671173285400,21.995285400390625,9.696823120117188,-0.0313873291015625,0.1725921630859375
1702338671272223500,22.094223388671875,9.696823120117188,-0.0313873291015625,0.2039794921875
1702338671806189600,22.628189453125,9.688980102539062,-0.078460693359375,0.196136474609375
1702338671964270600,22.7862705078125,9.728195190429688,0,0.1569061279296875
1702338672122382000,22.944382080078125,9.728195190429688,-0.0392303466796875,0.2353668212890625
1702338672280493800,23.102493896484376,9.649749755859375,-0.0392303466796875,0.1569061279296875
1702338672438574800,23.260574951171876,9.728195190429688,-0.0392303466796875,0.2353668212890625
1702338672596655900,23.41865576171875,9.688980102539062,-0.078460693359375,0.1569061279296875
1702338672754767400,23.576767333984375,9.728195190429688,-0.078460693359375,0.1569061279296875
1702338672912940000,23.73493994140625,9.688980102539062,-0.0392303466796875,0.1569061279296875
1702338673071082200,23.893082275390626,9.728195190429688,-0.078460693359375,0.1569061279296875
1702338673229224200,24.05122412109375,9.688980102539062,0,0.2353668212890625
1702338673387366400,24.209366455078126,9.688980102539062,-0.078460693359375,0.2353668212890625
1702338673545508400,24.36750830078125,9.649749755859375,-0.0392303466796875,0.1569061279296875
1702338673703162000,24.525162109375,9.688980102539062,-0.0392303466796875,0.2353668212890625
1702338673861517800,24.683517822265625,9.688980102539062,-0.0392303466796875,0.1569061279296875
1702338674019660000,24.841659912109375,9.688980102539062,-0.0392303466796875,0.1569061279296875
1702338674177985300,24.9999853515625,9.688980102539062,-0.078460693359375,0.1569061279296875
1702338674336096800,25.1580966796875,9.688980102539062,-0.0392303466796875,0.1569061279296875
1702338674494239000,25.316239013671876,9.728195190429688,0,0.1569061279296875
1702338674652350500,25.4743505859375,9.688980102539062,0,0.196136474609375
1702338674810492400,25.632492431640625,9.688980102539062,0,0.196136474609375
1702338674968604200,25.790604248046876,9.649749755859375,0,0.1569061279296875
1702338675126776600,25.948776611328125,9.688980102539062,-0.078460693359375,0.1569061279296875
1702338675284888300,26.106888427734376,9.728195190429688,-0.078460693359375,0.196136474609375
1702338675443030300,26.2650302734375,9.728195190429688,0,0.196136474609375
1702338675601111300,26.423111328125,9.649749755859375,-0.0392303466796875,0.2353668212890625
1702338675759223000,26.58122314453125,9.688980102539062,-0.0392303466796875,0.1569061279296875
1702338675917365000,26.739364990234375,9.688980102539062,-0.0392303466796875,0.196136474609375
1702338676075507200,26.897507080078125,9.728195190429688,-0.078460693359375,0.1569061279296875
1702338676233618700,27.05561865234375,9.610519409179688,-0.0392303466796875,0.1569061279296875
1702338676391761000,27.213760986328126,10.277374267578125,-0.1176910400390625,0.1176910400390625
1702338676549933300,27.371933349609375,9.728195190429688,0,0.1569061279296875
1702338676708045000,27.530045166015626,9.72821044921875,-0.078460693359375,0.15692138671875
1702338676866156500,27.688156494140625,8.982894897460938,0.1176910400390625,-0.0392303466796875
1702338677024268000,27.84626806640625,9.571304321289062,-0.0392303466796875,0.196136474609375
1702338677380390000,28.202389892578125,9.712509155273438,-0.01568603515625,0.1725921630859375
1702338677479419400,28.30141943359375,9.681121826171875,-0.0470733642578125,0.18829345703125
1702338677578418400,28.40041845703125,9.696823120117188,-0.01568603515625,0.1725921630859375
1702338677677448000,28.499447998046875,9.649749755859375,0,0.1569061279296875
1702338677776599600,28.598599609375,9.649749755859375,-0.062774658203125,0.1725921630859375
1702338677875354600,28.697354736328126,9.681121826171875,-0.0313873291015625,0.18829345703125
1702338677974353400,28.796353515625,9.728195190429688,-0.0313873291015625,0.1569061279296875
1702338678073352400,28.8953525390625,9.743881225585938,-0.01568603515625,0.1569061279296875
1702338678172412700,28.99441259765625,9.665435791015625,-0.01568603515625,0.1725921630859375
1702338678271503000,29.093503173828125,9.696823120117188,-0.0470733642578125,0.2353668212890625
1702338678370380000,29.192380126953125,9.681121826171875,-0.0313873291015625,0.2039794921875
1702338678469440300,29.291440185546875,9.712509155273438,0,0.1412200927734375
1702338678568469800,29.3904697265625,9.681121826171875,-0.0470733642578125,0.2039794921875
1702338678667499300,29.489499267578125,9.712509155273438,-0.078460693359375,0.18829345703125
1702338678766498300,29.588498291015625,9.728195190429688,-0.0470733642578125,0.2039794921875
1702338678865497300,29.687497314453125,9.712509155273438,0,0.1412200927734375
1702338679399585500,30.22158544921875,9.688980102539062,0.0392303466796875,0.196136474609375
1702338679557941200,30.379941162109375,9.649749755859375,0,0.1569061279296875
1702338679715900200,30.537900146484375,9.649749755859375,-0.078460693359375,0.196136474609375
1702338679873981200,30.695981201171875,9.728195190429688,-0.0392303466796875,0.2353668212890625
1702338680230060300,31.052060302734375,9.712509155273438,0,0.1725921630859375
1702338680329120300,31.151120361328125,9.696823120117188,-0.01568603515625,0.18829345703125
1702338680428058400,31.250058349609375,9.696823120117188,-0.0313873291015625,0.1569061279296875
1702338680527057400,31.349057373046875,9.75958251953125,-0.0313873291015625,0.2196807861328125
1702338680626056400,31.448056396484375,9.728195190429688,-0.0313873291015625,0.1725921630859375
1702338680725055500,31.547055419921875,9.696823120117188,-0.062774658203125,0.1725921630859375
1702338681258289200,32.0802890625,9.688980102539062,-0.0392303466796875,0.2353668212890625
1702338681417163500,32.23916357421875,9.728195190429688,-0.078460693359375,0.1569061279296875
1702338681575275300,32.397275146484375,9.688980102539062,0.0392303466796875,0.1569061279296875
1702338681733447700,32.55544775390625,9.688980102539062,0,0.1569061279296875
1702338682089526800,32.91152685546875,9.728195190429688,-0.0470733642578125,0.1569061279296875
1702338682188648000,33.01064794921875,9.728195190429688,-0.0313873291015625,0.1412200927734375
1702338682287433500,33.10943359375,9.696823120117188,0,0.18829345703125
1702338682386463000,33.208462890625,9.665435791015625,-0.0470733642578125,0.1412200927734375
1702338682485462000,33.3074619140625,9.665435791015625,-0.0470733642578125,0.18829345703125
1702338682584461000,33.4064609375,9.681121826171875,-0.0470733642578125,0.18829345703125
1702338683118488000,33.940488037109375,9.649749755859375,-0.0392303466796875,0.1569061279296875
1702338683276081000,34.098080810546875,9.688980102539062,0,0.196136474609375
1702338683434711300,34.256711181640625,9.728195190429688,-0.0392303466796875,0.1569061279296875
1702338683592883700,34.4148837890625,9.649749755859375,0,0.1569061279296875
1702338683750995500,34.572995361328125,9.610519409179688,0,0.1569061279296875
1702338683909076500,34.731076416015625,9.649749755859375,-0.0392303466796875,0.2353668212890625
1702338684067188000,34.88918798828125,9.688980102539062,-0.078460693359375,0.1569061279296875
1702338684225269000,35.04726904296875,9.728195190429688,-0.0392303466796875,0.2353668212890625
1702338684382648300,35.2046484375,9.728195190429688,-0.078460693359375,0.1569061279296875
1702338684541553200,35.36355322265625,9.728195190429688,-0.0392303466796875,0.1569061279296875
1702338684699695400,35.5216953125,9.688980102539062,-0.0392303466796875,0.1569061279296875
1702338684857806800,35.679806884765625,9.728195190429688,0.0392303466796875,0.2353668212890625
1702338685015918600,35.83791870117187,9.649749755859375,0,0.1569061279296875
1702338685173999600,35.99599951171875,9.688980102539062,0,0.196136474609375
1702338685332111000,36.154111083984375,9.728195190429688,-0.0392303466796875,0.1569061279296875
1702338685489856500,36.3118564453125,9.649749755859375,0,0.1569061279296875
1702338685648364800,36.47036474609375,9.688980102539062,0,0.2353668212890625
1702338685806476300,36.628476318359375,9.688980102539062,-0.0392303466796875,0.1569061279296875
1702338685964557300,36.786557373046875,9.688980102539062,0,0.196136474609375
1702338686122638300,36.944638427734375,9.649749755859375,-0.0392303466796875,0.1569061279296875
1702338686280719600,37.1027197265625,9.688980102539062,-0.0392303466796875,0.1569061279296875
1702338686438831000,37.2608310546875,9.688980102539062,0,0.1569061279296875
1702338686596149200,37.418149169921875,9.728195190429688,-0.0392303466796875,0.1569061279296875
1702338686755054300,37.57705444335937,9.728195190429688,-0.078460693359375,0.1569061279296875
1702338686912989400,37.73498950195312,9.688980102539062,0,0.2353668212890625
1702338687071131600,37.89313159179687,9.688980102539062,0,0.196136474609375
1702338687229212700,38.05121264648437,9.649749755859375,0,0.1569061279296875
1702338687387354600,38.20935473632812,9.688980102539062,-0.078460693359375,0.196136474609375
1702338687545680000,38.36767993164062,9.728195190429688,0,0.1569061279296875
1702338687703242200,38.5252421875,9.728195190429688,-0.078460693359375,0.1569061279296875
1702338687861872600,38.68387255859375,9.688980102539062,-0.078460693359375,0.1569061279296875
1702338688020106200,38.84210620117187,9.688980102539062,0,0.2353668212890625
1702338688178065200,39.00006518554687,9.688980102539062,0.0392303466796875,0.196136474609375
1702338688336176600,39.1581767578125,9.649749755859375,0,0.196136474609375
1702338688494318800,39.31631884765625,9.688980102539062,-0.078460693359375,0.196136474609375
1702338688652399900,39.47439990234375,9.728195190429688,-0.0392303466796875,0.2353668212890625
1702338688810633500,39.63263354492187,9.728195190429688,0,0.196136474609375
1702338688968653600,39.79065356445312,9.649749755859375,0,0.2353668212890625
1702338689126734600,39.94873461914062,9.649749755859375,0,0.1569061279296875
1702338689284815600,40.10681567382812,9.649749755859375,-0.0392303466796875,0.196136474609375
1702338689442957800,40.26495776367187,9.728195190429688,-0.078460693359375,0.1569061279296875
1702338689601069300,40.4230693359375,9.649749755859375,-0.078460693359375,0.196136474609375
1702338689759211500,40.58121142578125,9.728195190429688,-0.078460693359375,0.1569061279296875
1702338689916865300,40.738865234375,9.728195190429688,0,0.1569061279296875
1702338690075312400,40.8973125,9.688980102539062,0,0.196136474609375
1702338690233546200,41.05554614257812,9.728195190429688,-0.078460693359375,0.1569061279296875
1702338690391688200,41.21368823242187,9.688980102539062,-0.078460693359375,0.2353668212890625
1702338690549830400,41.37183032226562,9.728195190429688,0,0.2353668212890625
1702338690707942000,41.52994189453125,9.728195190429688,-0.078460693359375,0.2353668212890625
1702338690866053400,41.68805346679687,9.688980102539062,0,0.1569061279296875
1702338691024134400,41.84613452148437,9.728195190429688,-0.0392303466796875,0.1569061279296875
1702338691182215700,42.00421557617187,9.688980102539062,0,0.1569061279296875
1702338691340296700,42.16229663085937,9.728195190429688,-0.078460693359375,0.1569061279296875
1702338691498408200,42.320408203125,9.728195190429688,-0.0392303466796875,0.1569061279296875
1702338691656519700,42.47851977539062,9.688980102539062,0,0.196136474609375
1702338691814631400,42.63663134765625,9.688980102539062,-0.0392303466796875,0.1569061279296875
1702338691972712400,42.79471240234375,9.649749755859375,-0.0392303466796875,0.1569061279296875
1702338692130946000,42.95294604492187,9.610519409179688,-0.0392303466796875,0.1569061279296875
1702338692288996600,43.11099658203125,9.728195190429688,-0.078460693359375,0.1569061279296875
1702338692446986000,43.26898608398437,9.688980102539062,0,0.2353668212890625
1702338692605219800,43.4272197265625,9.688980102539062,-0.0392303466796875,0.196136474609375
1702338692763300900,43.58530078125,9.728195190429688,-0.0392303466796875,0.196136474609375
1702338692921382000,43.7433818359375,9.728195190429688,0,0.196136474609375
1702338693079493400,43.90149340820312,9.688980102539062,0,0.1569061279296875
1702338693435511600,44.25751147460937,9.649749755859375,0.01568603515625,0.2510528564453125
1702338693534510600,44.35651049804687,9.712509155273438,-0.0470733642578125,0.1255340576171875
1702338693633448400,44.45544848632812,9.728195190429688,-0.01568603515625,0.1725921630859375
1702338693732172800,44.5541728515625,9.649749755859375,-0.01568603515625,0.1725921630859375
1702338693831477000,44.65347705078125,9.696807861328125,-0.01568603515625,0.1725921630859375
1702338693930445600,44.75244555664062,9.681121826171875,-0.0313873291015625,0.18829345703125
1702338694029444600,44.85144458007812,9.649749755859375,-0.01568603515625,0.2196807861328125
1702338694128565800,44.95056567382812,9.665435791015625,-0.062774658203125,0.1569061279296875
1702338694227870000,45.04986987304687,9.712509155273438,0,0.1725921630859375
1702338694326411300,45.14841137695313,9.728195190429688,-0.0470733642578125,0.2196807861328125
1702338694425410000,45.24741015625,9.681121826171875,-0.0313873291015625,0.2039794921875
1702338694524317700,45.34631762695312,9.696823120117188,0,0.1725921630859375
1702338694623408000,45.445408203125,9.712509155273438,-0.0313873291015625,0.1569061279296875
1702338694722407200,45.5444072265625,9.665435791015625,-0.01568603515625,0.1569061279296875
1702338694821436700,45.64343676757812,9.681121826171875,0,0.1569061279296875
1702338694920435700,45.74243579101562,9.696823120117188,-0.0470733642578125,0.1569061279296875
1702338695453852700,46.27585278320313,9.728195190429688,0,0.196136474609375
1702338695612482800,46.43448291015625,9.728195190429688,0,0.1569061279296875
1702338695770594600,46.59259448242187,9.728195190429688,0,0.1569061279296875
1702338695928736500,46.75073657226562,9.688980102539062,0,0.1569061279296875
1702338696086848300,46.90884814453125,9.728195190429688,0,0.1569061279296875
1702338696245356500,47.0673564453125,9.728195190429688,0,0.2353668212890625
1702338696403040800,47.22504077148437,9.728195190429688,0,0.2353668212890625
1702338696561183000,47.38318286132812,9.728195190429688,0,0.1569061279296875
1702338696719264000,47.54126391601562,9.688980102539062,0,0.196136474609375
1702338696877406000,47.69940600585937,9.806655883789062,-0.0392303466796875,0.2353668212890625
1702338697035365000,47.857365234375,9.96356201171875,0,0.2353668212890625
1702338697193598700,48.0155986328125,9.492843627929688,0,0.1569061279296875
1702338697351527700,48.173527587890625,10.4735107421875,-0.27459716796875,0.8629913330078125
1702338697509761300,48.33176123046875,9.72821044921875,-0.078460693359375,0.2353668212890625
1702338697667872800,48.489872802734375,9.728195190429688,0,0.196136474609375
1702338697825984500,48.64798461914062,9.806655883789062,-0.0392303466796875,0.2353668212890625
1702338698181880600,49.00388061523437,9.681121826171875,-0.0313873291015625,0.2196807861328125
1702338698280360700,49.102360595703125,9.665435791015625,-0.0470733642578125,0.1569061279296875
1702338698379939600,49.20193969726562,9.681121826171875,-0.01568603515625,0.1725921630859375
1702338698478511400,49.30051147460937,9.665435791015625,0,0.2196807861328125
1702338698577907200,49.3999072265625,9.649749755859375,-0.0313873291015625,0.18829345703125
1702338698676875500,49.49887548828125,9.696823120117188,0.01568603515625,0.2039794921875
1702338698775844000,49.597843994140625,9.728195190429688,-0.0313873291015625,0.2039794921875
1702338698874812700,49.69681274414062,9.712509155273438,-0.0470733642578125,0.1725921630859375
1702338698973781000,49.795781005859375,9.712509155273438,-0.0470733642578125,0.2039794921875
1702338699072719000,49.894718994140625,9.728195190429688,0,0.2039794921875
1702338699171443500,49.993443359375,9.696823120117188,0,0.1725921630859375
1702338699270747600,50.09274755859375,9.681121826171875,0,0.2196807861328125
1702338699369716200,50.19171630859375,9.743881225585938,-0.062774658203125,0.2039794921875
1702338699468623600,50.29062353515625,9.743881225585938,-0.0470733642578125,0.18829345703125
1702338699567683600,50.38968359375,9.712509155273438,-0.01568603515625,0.1725921630859375
1702338699666682600,50.4886826171875,9.681121826171875,0,0.1569061279296875
1702338700200740400,51.022740234375,9.728195190429688,0,0.1176910400390625
1702338700358913000,51.1809130859375,9.688980102539062,-0.078460693359375,0.1569061279296875
1702338700516963600,51.33896362304687,9.728195190429688,-0.0392303466796875,0.1569061279296875
1702338700675105500,51.49710546875,9.728195190429688,-0.078460693359375,0.1569061279296875
1702338700833217000,51.655217041015625,9.688980102539062,0,0.196136474609375
1702338700991359200,51.813359130859375,9.728195190429688,0,0.1569061279296875
1702338701149440300,51.971440185546875,9.688980102539062,-0.0392303466796875,0.1569061279296875
1702338701307551700,52.1295517578125,9.728195190429688,-0.0392303466796875,0.1569061279296875
1702338701465663500,52.28766357421875,9.649749755859375,0,0.196136474609375
1702338701623744500,52.44574462890625,9.688980102539062,-0.0392303466796875,0.1569061279296875
1702338701781886500,52.603886474609375,9.728195190429688,-0.078460693359375,0.196136474609375
1702338701939967700,52.7619677734375,9.649749755859375,-0.0392303466796875,0.196136474609375
1702338702098079200,52.92007934570312,9.728195190429688,-0.0392303466796875,0.1569061279296875
1702338702256160300,53.07816015625,9.649749755859375,0,0.196136474609375
1702338702414302500,53.23630249023437,9.728195190429688,-0.0392303466796875,0.196136474609375
1702338702572444400,53.3944443359375,9.688980102539062,0,0.196136474609375
1702338702730556000,53.552555908203125,9.728195190429688,-0.0392303466796875,0.196136474609375
1702338702888667600,53.71066772460937,9.728195190429688,0,0.196136474609375
1702338703046809600,53.8688095703125,9.649749755859375,0,0.196136474609375
1702338703204890600,54.026890625,9.728195190429688,-0.0392303466796875,0.1569061279296875
1702338703363032800,54.18503271484375,9.688980102539062,0,0.1569061279296875
1702338703520381400,54.34238134765625,9.728195190429688,-0.0392303466796875,0.1569061279296875
1702338703679286500,54.50128662109375,9.728195190429688,-0.078460693359375,0.1569061279296875
1702338703837367600,54.659367431640625,9.649749755859375,-0.0392303466796875,0.1569061279296875
1702338703995479000,54.81747900390625,9.649749755859375,-0.0392303466796875,0.1569061279296875
1702338704153529600,54.975529541015625,9.728195190429688,0,0.196136474609375
1702338704311641000,55.13364111328125,9.728195190429688,0,0.1569061279296875
1702338704469813800,55.291813720703125,9.688980102539062,-0.0392303466796875,0.1569061279296875
1702338704627589600,55.449589599609375,9.728195190429688,-0.0392303466796875,0.1176910400390625
1702338704785975800,55.607975830078125,9.728195190429688,-0.0392303466796875,0.1569061279296875
1702338704944087600,55.76608764648437,9.688980102539062,0,0.1176910400390625
1702338705102260200,55.92426025390625,9.728195190429688,0,0.1569061279296875
1702338705260280000,56.082280029296875,9.728195190429688,0,0.196136474609375
1702338705418452700,56.24045263671875,9.688980102539062,0,0.196136474609375
1702338705576564200,56.398564208984375,9.728195190429688,-0.0392303466796875,0.196136474609375
1702338705733882400,56.55588232421875,9.688980102539062,-0.0392303466796875,0.196136474609375
1702338705892787500,56.714787353515625,9.728195190429688,-0.0392303466796875,0.1569061279296875
1702338706050899000,56.87289892578125,9.649749755859375,-0.0392303466796875,0.1569061279296875
1702338706208949500,57.030949462890625,9.688980102539062,-0.078460693359375,0.1569061279296875
1702338706367183000,57.18918310546875,9.728195190429688,0,0.2353668212890625
1702338706525264100,57.34726416015625,9.728195190429688,-0.0392303466796875,0.1569061279296875
1702338706683375900,57.5053759765625,9.688980102539062,-0.0392303466796875,0.1569061279296875
1702338706841548500,57.66354858398437,9.649749755859375,0,0.1569061279296875
1702338706999660000,57.821659912109375,9.688980102539062,-0.078460693359375,0.1569061279296875
1702338707157771500,57.979771484375,9.649749755859375,0,0.1569061279296875
1702338707315852500,58.1378525390625,9.688980102539062,-0.0392303466796875,0.1569061279296875
1702338707474025200,58.296025146484375,9.688980102539062,-0.0392303466796875,0.2353668212890625
1702338707632167200,58.454167236328125,9.728195190429688,-0.078460693359375,0.1569061279296875
1702338707790279000,58.61227880859375,9.728195190429688,0,0.2353668212890625
1702338707947627500,58.76962744140625,9.649749755859375,-0.0392303466796875,0.196136474609375
1702338708106624000,58.9286240234375,9.610519409179688,0,0.2353668212890625
1702338708264644000,59.08664404296875,9.649749755859375,-0.0392303466796875,0.196136474609375
1702338708422816500,59.24481640625,9.728195190429688,0,0.1569061279296875
1702338708580958700,59.402958740234375,9.688980102539062,0,0.196136474609375
1702338708739101000,59.561100830078125,9.688980102539062,-0.0392303466796875,0.1569061279296875
1702338708897243000,59.719242919921875,9.649749755859375,-0.078460693359375,0.2353668212890625
1702338709055263000,59.877262939453125,9.728195190429688,-0.078460693359375,0.1569061279296875
1702338709213435600,60.035435546875,9.728195190429688,-0.078460693359375,0.196136474609375
1702338709569484000,60.391484130859375,9.681121826171875,-0.078460693359375,0.2196807861328125
1702338709668483000,60.490483154296875,9.696823120117188,0,0.18829345703125
1702338709767390700,60.589390625,9.728195190429688,-0.01568603515625,0.18829345703125
1702338709866328600,60.68832861328125,9.743881225585938,-0.0470733642578125,0.2039794921875
1702338709964839400,60.78683935546875,9.712509155273438,-0.0470733642578125,0.1569061279296875
1702338710064326700,60.88632666015625,9.665435791015625,-0.062774658203125,0.1725921630859375
1702338710162623700,60.984623779296875,9.665435791015625,-0.01568603515625,0.2039794921875
1702338710261683700,61.08368359375,9.634063720703125,-0.0313873291015625,0.2196807861328125
1702338710361018600,61.1830185546875,9.665435791015625,-0.0313873291015625,0.2353668212890625
1702338710460658400,61.282658447265625,9.696823120117188,0,0.18829345703125
1702338710559413200,61.381413330078125,9.728195190429688,-0.01568603515625,0.18829345703125
1702338710658412300,61.480412353515625,9.712509155273438,-0.0470733642578125,0.2039794921875
1702338710757411300,61.579411376953125,9.681121826171875,-0.0313873291015625,0.18829345703125
1702338710856410400,61.678410400390625,9.649749755859375,-0.01568603515625,0.1569061279296875
1702338710955409400,61.777409423828125,9.681121826171875,-0.0313873291015625,0.18829345703125
1702338711054408400,61.876408447265625,9.696823120117188,0,0.18829345703125
1702338711588557600,62.4105576171875,9.688980102539062,0,0.2353668212890625
1702338711746547200,62.568547119140625,9.649749755859375,-0.078460693359375,0.1569061279296875
1702338711904750300,62.726750244140625,9.688980102539062,-0.078460693359375,0.196136474609375
1702338712062770200,62.884770263671875,9.649749755859375,0,0.196136474609375
1702338712220973300,63.042973388671875,9.688980102539062,0,0.2353668212890625
1702338712378291500,63.20029150390625,9.688980102539062,0,0.1569061279296875
1702338712537196500,63.359196533203125,9.688980102539062,-0.0392303466796875,0.1569061279296875
1702338712695369200,63.517369140625,9.728195190429688,0,0.1569061279296875
1702338712853511200,63.67551123046875,9.649749755859375,0,0.196136474609375
1702338713011317500,63.8333173828125,9.688980102539062,-0.0392303466796875,0.1569061279296875
1702338713169581800,63.991581787109375,9.688980102539062,0,0.1569061279296875
1702338713328242700,64.15024267578124,9.688980102539062,0,0.1569061279296875
1702338713485225000,64.30722485351562,9.688980102539062,-0.0392303466796875,0.196136474609375
1702338713644191200,64.46619116210937,9.688980102539062,0,0.1569061279296875
1702338713802272300,64.62427221679687,9.649749755859375,0,0.1569061279296875
1702338713960414200,64.78241430664062,9.688980102539062,0,0.1569061279296875
1702338714316432400,65.13843237304687,9.696823120117188,-0.0470733642578125,0.2039794921875
1702338714415462000,65.2374619140625,9.681121826171875,-0.0313873291015625,0.1569061279296875
1702338714514461000,65.3364609375,9.712509155273438,-0.062774658203125,0.1569061279296875
1702338714613521000,65.43552099609374,9.728195190429688,-0.0470733642578125,0.18829345703125
1702338714712642000,65.53464208984374,9.712509155273438,0,0.18829345703125
1702338714811488500,65.63348852539062,9.649749755859375,-0.062774658203125,0.18829345703125
1702338715345485000,66.16748510742187,9.688980102539062,0,0.196136474609375
1702338715503657700,66.32565771484374,9.649749755859375,0,0.2353668212890625
1702338715661799700,66.48379956054687,9.728195190429688,-0.0392303466796875,0.1569061279296875
1702338715819911400,66.64191137695312,9.728195190429688,0,0.1569061279296875
1702338715978053400,66.80005346679687,9.688980102539062,0,0.2353668212890625
1702338716136134400,66.95813452148437,9.728195190429688,-0.0392303466796875,0.1569061279296875
1702338716294215700,67.11621557617187,9.649749755859375,0,0.1569061279296875
1702338716452388000,67.27438818359374,9.610519409179688,0,0.1569061279296875
1702338716609706200,67.43170629882812,9.649749755859375,0,0.2353668212890625
1702338716768672300,67.59067236328124,9.767425537109375,-0.078460693359375,0.2353668212890625
1702338717124721000,67.94672094726562,9.712509155273438,0,0.172607421875
1702338717223750400,68.04575048828124,9.665435791015625,-0.0470733642578125,0.1569061279296875
1702338717322737700,68.14473754882812,9.681121826171875,0,0.2039794921875
1702338717421736700,68.24373681640625,9.665435791015625,-0.0470733642578125,0.2039794921875
1702338717520583200,68.34258325195313,9.728195190429688,-0.0313873291015625,0.18829345703125
1702338717619032800,68.44103271484374,9.681121826171875,-0.0313873291015625,0.18829345703125
1702338717718306600,68.540306640625,9.696823120117188,0,0.2353668212890625
1702338717817000400,68.63900048828125,9.696823120117188,-0.01568603515625,0.1725921630859375
1702338717916060400,68.73806030273437,9.696823120117188,0,0.1569061279296875
1702338718015303700,68.8373037109375,9.728195190429688,-0.01568603515625,0.1725921630859375
1702338718114394400,68.93639428710938,9.728195190429688,-0.0470733642578125,0.1412200927734375
1702338718214217200,69.03621728515625,9.712509155273438,-0.0470733642578125,0.2196807861328125
1702338718313308000,69.13530786132813,9.728195190429688,0,0.2196807861328125
1702338718411696400,69.2336962890625,9.696823120117188,0,0.2196807861328125
1702338718510665000,69.3326650390625,9.728195190429688,-0.0313873291015625,0.1725921630859375
1702338718609664000,69.4316640625,9.665435791015625,-0.062774658203125,0.1569061279296875
1702338719143660500,69.96566064453125,9.688980102539062,-0.0392303466796875,0.1569061279296875
1702338719301711000,70.12371118164063,9.728195190429688,0,0.1569061279296875
1702338719459883800,70.2818837890625,9.610519409179688,0,0.1569061279296875
1702338719617873200,70.439873046875,9.688980102539062,-0.078460693359375,0.1569061279296875
1702338719775954400,70.59795434570313,9.649749755859375,0,0.1569061279296875
1702338719934188000,70.75618798828125,9.688980102539062,-0.0392303466796875,0.196136474609375
1702338720092696300,70.9146962890625,9.728195190429688,-0.0392303466796875,0.1569061279296875
1702338720250228000,71.07222802734375,9.688980102539062,-0.0392303466796875,0.1569061279296875
1702338720408339500,71.23033935546874,9.649749755859375,-0.0392303466796875,0.1569061279296875
1702338720566390000,71.38839013671875,9.688980102539062,-0.0392303466796875,0.2353668212890625
1702338720922347000,71.74434692382812,9.696823120117188,0.01568603515625,0.18829345703125
1702338721021346000,71.84334594726562,9.665435791015625,0.01568603515625,0.2196807861328125
1702338721120345000,71.94234497070312,9.728195190429688,0,0.18829345703125
1702338721219313700,72.04131372070313,9.696823120117188,-0.01568603515625,0.1725921630859375
1702338721318282200,72.1402822265625,9.681121826171875,-0.0313873291015625,0.18829345703125
1702338721417281300,72.23928125,9.696823120117188,0,0.1569061279296875
1702338721951094800,72.7730947265625,9.72821044921875,0,0.196136474609375
1702338722109298000,72.9312978515625,9.688980102539062,-0.078460693359375,0.1569061279296875
1702338722267348200,73.08934814453124,9.728195190429688,0,0.1569061279296875
1702338722425460000,73.2474599609375,9.649749755859375,0,0.196136474609375
1702338722781417000,73.6034169921875,9.712509155273438,0.01568603515625,0.1569061279296875
1702338722880385500,73.70238549804688,9.696823120117188,0.01568603515625,0.2196807861328125
1702338722979353900,73.80135375976562,9.681121826171875,-0.01568603515625,0.18829345703125
1702338723078292000,73.9002919921875,9.649749755859375,-0.062774658203125,0.1725921630859375
1702338723177260500,73.99926049804688,9.649749755859375,0,0.2039794921875
1702338723276228900,74.09822875976562,9.75958251953125,-0.0313873291015625,0.2039794921875
1702338723810408700,74.63240869140625,9.72821044921875,0,0.1176910400390625
1702338723968337200,74.79033715820313,9.728195190429688,-0.0392303466796875,0.1569061279296875
1702338724126479000,74.94847900390624,9.649749755859375,-0.0392303466796875,0.1569061279296875
1702338724284499200,75.10649926757813,9.649749755859375,-0.0392303466796875,0.1569061279296875
1702338724442641400,75.26464135742188,9.688980102539062,-0.0392303466796875,0.1569061279296875
1702338724600722400,75.42272241210938,9.728195190429688,-0.078460693359375,0.1569061279296875
1702338724758803500,75.58080346679688,9.688980102539062,-0.0392303466796875,0.1569061279296875
1702338724916915000,75.7389150390625,9.649749755859375,-0.0392303466796875,0.1569061279296875
1702338725075026700,75.89702661132813,9.728195190429688,-0.0392303466796875,0.1569061279296875
1702338725233107700,76.05510766601563,9.649749755859375,-0.0392303466796875,0.196136474609375
1702338725391188700,76.21318872070313,9.728195190429688,-0.0392303466796875,0.2353668212890625
1702338725549269800,76.37126977539063,9.688980102539062,0,0.196136474609375
1702338725707350800,76.52935083007813,9.688980102539062,-0.0392303466796875,0.2353668212890625
1702338725865462300,76.68746215820312,9.728195190429688,-0.0392303466796875,0.196136474609375
1702338726023512800,76.84551293945313,9.728195190429688,-0.0392303466796875,0.1569061279296875
1702338726181593900,77.00359375,9.649749755859375,0,0.1569061279296875
1702338726339766500,77.1617666015625,9.688980102539062,-0.0392303466796875,0.2353668212890625
1702338726497786600,77.31978662109375,9.688980102539062,0,0.1569061279296875
1702338726656295000,77.478294921875,9.649749755859375,0,0.1569061279296875
1702338726815016700,77.6370166015625,9.728195190429688,-0.0392303466796875,0.196136474609375
1702338726971968800,77.79396875,9.728195190429688,-0.078460693359375,0.196136474609375
1702338727130110700,77.95211083984375,9.728195190429688,-0.0392303466796875,0.2353668212890625
1702338727485239800,78.30723974609376,9.712509155273438,-0.0313873291015625,0.1725921630859375
1702338727584330200,78.40633032226563,9.743881225585938,0,0.18829345703125
1702338727683817500,78.5058173828125,9.649749755859375,-0.0313873291015625,0.1569061279296875
1702338727782969000,78.60496899414062,9.665435791015625,0,0.1569061279296875
1702338727881937700,78.70393774414063,9.681121826171875,-0.01568603515625,0.2039794921875
1702338727980875800,78.80287573242188,9.728195190429688,-0.0313873291015625,0.1725921630859375
1702338728514719700,79.3367197265625,9.688980102539062,0,0.196136474609375
1702338728672831200,79.49483129882813,9.728195190429688,-0.0392303466796875,0.1569061279296875
1702338728830912300,79.65291235351563,9.649749755859375,-0.0392303466796875,0.196136474609375
1702338728988993300,79.8109931640625,9.688980102539062,-0.0392303466796875,0.196136474609375
1702338729147074300,79.96907421875,9.728195190429688,-0.078460693359375,0.196136474609375
1702338729305094400,80.12709448242188,9.728195190429688,0,0.2353668212890625
1702338729463206000,80.28520581054687,9.728195190429688,0,0.2353668212890625
1702338729621317600,80.44331762695313,9.649749755859375,-0.078460693359375,0.1569061279296875
1702338729779337500,80.60133740234374,9.688980102539062,-0.0392303466796875,0.196136474609375
1702338729937449200,80.75944921875,9.649749755859375,0,0.2353668212890625
1702338730095560700,80.91756079101563,9.728195190429688,0,0.1569061279296875
1702338730253611300,81.075611328125,9.688980102539062,-0.0392303466796875,0.196136474609375
1702338730411692300,81.2336923828125,9.688980102539062,-0.078460693359375,0.1569061279296875
1702338730569712400,81.39171240234376,9.688980102539062,-0.078460693359375,0.196136474609375
1702338730727854300,81.54985424804687,9.688980102539062,-0.0392303466796875,0.1569061279296875
1702338730885935600,81.707935546875,9.649749755859375,0,0.2353668212890625
1702338731044016600,81.8660166015625,9.649749755859375,0,0.1569061279296875
1702338731202067200,82.02406713867188,9.688980102539062,0,0.1569061279296875
1702338731360178700,82.1821787109375,9.688980102539062,0,0.196136474609375
1702338731517527300,82.33952734375,9.728195190429688,-0.0392303466796875,0.1569061279296875
1702338731676371200,82.49837109375,9.688980102539062,-0.0392303466796875,0.1569061279296875
1702338731834452200,82.6564521484375,9.649749755859375,0,0.1569061279296875
1702338731992533500,82.81453344726563,9.649749755859375,-0.0392303466796875,0.196136474609375
1702338732150583800,82.97258374023437,9.649749755859375,-0.078460693359375,0.1569061279296875
1702338732308634400,83.13063427734374,9.728195190429688,-0.078460693359375,0.196136474609375
1702338732466776600,83.28877661132813,9.688980102539062,0,0.1569061279296875
1702338732624827100,83.4468271484375,9.688980102539062,-0.0392303466796875,0.196136474609375
1702338732782908200,83.604908203125,9.728195190429688,-0.0392303466796875,0.196136474609375
1702338732940989200,83.7629892578125,9.728195190429688,0,0.1176910400390625
1702338733099100700,83.9211005859375,9.688980102539062,-0.0392303466796875,0.1569061279296875
1702338733257151200,84.07915112304687,9.688980102539062,0,0.1569061279296875
1702338733415232300,84.23723217773437,9.688980102539062,-0.078460693359375,0.1569061279296875
1702338733573344000,84.39534399414063,9.728195190429688,0,0.1569061279296875
1702338733730631400,84.55263134765624,9.728195190429688,0,0.2353668212890625
1702338733889506000,84.71150610351563,9.728195190429688,0,0.2353668212890625
1702338734047587000,84.86958715820313,9.728195190429688,0,0.1569061279296875
1702338734205637600,85.0276376953125,9.728195190429688,0,0.1569061279296875
1702338734363871200,85.18587133789063,9.688980102539062,0,0.1569061279296875
1702338734522593300,85.34459326171876,9.649749755859375,0,0.196136474609375
1702338734679911400,85.50191137695313,9.649749755859375,0,0.1569061279296875
1702338734838267100,85.66026708984376,9.688980102539062,0,0.1569061279296875
1702338734996073500,85.81807348632813,9.688980102539062,-0.078460693359375,0.196136474609375
1702338735154154500,85.97615454101563,9.728195190429688,-0.078460693359375,0.2353668212890625
1702338735312235500,86.13423559570313,9.728195190429688,-0.0392303466796875,0.1569061279296875
1702338735470347000,86.29234692382812,9.649749755859375,0,0.196136474609375
1702338735628458800,86.45045874023438,9.688980102539062,-0.0392303466796875,0.1176910400390625
1702338735786539800,86.60853979492188,9.728195190429688,-0.0392303466796875,0.1569061279296875
1702338735943827500,86.76582739257813,9.688980102539062,0,0.1569061279296875
1702338736102671400,86.92467138671876,9.649749755859375,0.0392303466796875,0.2353668212890625
1702338736260752400,87.08275244140626,9.728195190429688,0,0.2353668212890625
1702338736418863900,87.24086376953124,9.728195190429688,0,0.2353668212890625
1702338736576975600,87.3989755859375,9.649749755859375,0,0.2353668212890625
1702338736735056600,87.557056640625,9.649749755859375,0,0.196136474609375
1702338736893137700,87.7151376953125,9.649749755859375,0,0.196136474609375
1702338737050425300,87.87242529296876,9.649749755859375,0,0.2353668212890625
1702338737209269200,88.03126928710938,9.728195190429688,-0.0392303466796875,0.2353668212890625
1702338737367382000,88.18938208007812,9.728195190429688,-0.078460693359375,0.2353668212890625
1702338737525463300,88.34746337890626,9.728195190429688,0,0.196136474609375
1702338737683544300,88.50554443359376,9.728195190429688,-0.0392303466796875,0.2353668212890625
1702338737841625300,88.66362524414062,9.688980102539062,-0.078460693359375,0.1569061279296875
1702338737999736800,88.82173681640624,9.649749755859375,-0.1176910400390625,0.2353668212890625
1702338738157329700,88.97932958984374,9.728195190429688,-0.078460693359375,0.196136474609375
1702338738315868400,89.13786840820312,9.728195190429688,0,0.196136474609375
1702338738473980200,89.29598022460938,9.728195190429688,-0.0392303466796875,0.2353668212890625
1702338738632091600,89.45409155273437,9.688980102539062,0,0.1569061279296875
1702338738790172700,89.61217260742187,9.728195190429688,0,0.1569061279296875
1702338738948284200,89.7702841796875,9.649749755859375,-0.0392303466796875,0.1569061279296875
1702338739106365200,89.928365234375,9.728195190429688,0,0.196136474609375
1702338739264446500,90.08644653320313,9.728195190429688,-0.078460693359375,0.1569061279296875
1702338739422527500,90.24452758789063,9.688980102539062,-0.0392303466796875,0.1569061279296875
1702338739778301400,90.60030151367188,9.728195190429688,0.01568603515625,0.1569061279296875
1702338739877269800,90.69926977539062,9.712509155273438,-0.01568603515625,0.18829345703125
1702338739975811000,90.79781103515624,9.728195190429688,-0.01568603515625,0.1569061279296875
1702338740075298300,90.89729833984374,9.712509155273438,0,0.1569061279296875
1702338740173595400,90.99559545898437,9.712509155273438,0,0.1569061279296875
1702338740272869000,91.094869140625,9.743881225585938,0.01568603515625,0.1725921630859375
1702338740807323600,91.62932373046876,9.688980102539062,0,0.196136474609375
1702338740965374000,91.7873740234375,9.728195190429688,-0.078460693359375,0.196136474609375
1702338741123424500,91.94542456054687,9.728195190429688,-0.078460693359375,0.196136474609375
1702338741280742700,92.10274267578124,9.649749755859375,0,0.2353668212890625
1702338741439647700,92.26164770507812,9.688980102539062,0,0.196136474609375
1702338741597942500,92.41994262695313,9.688980102539062,0,0.1569061279296875
1702338741755809800,92.57780981445312,9.688980102539062,0,0.1569061279296875
1702338741913890800,92.73589086914062,9.688980102539062,0,0.1569061279296875
1702338742072002600,92.89400244140624,9.728195190429688,0,0.1569061279296875
1702338742230053000,93.05205322265626,9.649749755859375,0,0.196136474609375
1702338742387676400,93.20967651367188,9.728195190429688,-0.0392303466796875,0.196136474609375
1702338742546276000,93.36827612304687,9.649749755859375,-0.078460693359375,0.1569061279296875
1702338742704387800,93.52638793945313,9.688980102539062,0,0.1569061279296875
1702338742862499300,93.68449926757812,9.649749755859375,0,0.1176910400390625
1702338743020214300,93.84221435546876,9.649749755859375,0.0392303466796875,0.1569061279296875
1702338743178661400,94.00066137695312,9.728195190429688,0,0.2353668212890625
1702338743336742400,94.15874243164062,9.649749755859375,0,0.1569061279296875
1702338743495372800,94.31737280273437,9.688980102539062,0,0.196136474609375
1702338743652935200,94.47493505859374,9.649749755859375,0,0.1569061279296875
1702338743811046700,94.63304663085937,9.728195190429688,-0.078460693359375,0.1569061279296875
1702338743969158100,94.791158203125,9.649749755859375,-0.0392303466796875,0.1569061279296875
1702338744127270000,94.94926977539062,9.649749755859375,-0.078460693359375,0.196136474609375
1702338744285289700,95.10728979492187,9.728195190429688,0,0.196136474609375
1702338744443432000,95.26543188476562,9.688980102539062,0,0.1569061279296875
1702338744601513000,95.42351293945312,9.649749755859375,0,0.1569061279296875
1702338744759655200,95.5816552734375,9.728195190429688,0,0.196136474609375
1702338744917888800,95.739888671875,9.728195190429688,0,0.2353668212890625
1702338745075847700,95.89784765625,9.688980102539062,-0.0392303466796875,0.1569061279296875
1702338745233928700,96.0559287109375,9.728195190429688,-0.078460693359375,0.196136474609375
1702338745392101400,96.21410131835937,9.728195190429688,-0.078460693359375,0.2353668212890625
1702338745550060300,96.37206030273437,9.728195190429688,-0.0392303466796875,0.196136474609375
1702338745708324600,96.53032470703126,9.610519409179688,-0.078460693359375,0.1569061279296875
1702338745866344400,96.68834448242187,9.728195190429688,-0.078460693359375,0.1569061279296875
1702338746024517000,96.84651708984374,9.767425537109375,-0.078460693359375,0.7453155517578125
1702338746380474000,97.20247412109374,9.586990356445312,0.078460693359375,-0.7845306396484375
1702338746479442700,97.30144262695312,9.398696899414062,0.0313873291015625,-1.0826568603515625
1702338746578441700,97.40044165039062,9.414382934570312,0.01568603515625,-1.3964691162109375
1702338746677379600,97.49937963867187,9.5399169921875,-0.109832763671875,-1.0041961669921875
1702338746776378600,97.59837866210937,9.7752685546875,0.21966552734375,-0.9571380615234375
1702338746875347200,97.69734716796874,10.057693481445312,0.01568603515625,-1.773040771484375
1702338746974315800,97.79631567382812,8.75537109375,0.706085205078125,-2.0240936279296875
1702338747073223200,97.89522314453124,9.96356201171875,0.59625244140625,-1.23956298828125
1702338747171947500,97.99394750976562,9.7752685546875,1.161102294921875,-2.792938232421875
1702338747271305200,98.09330517578125,8.237594604492188,1.67889404296875,-3.4048614501953125
1702338747370365200,98.192365234375,8.253280639648438,2.5575714111328125,-4.3462982177734375
1702338747469242000,98.2912421875,8.237579345703125,3.1695098876953125,-5.193603515625
1702338747568210700,98.39021069335938,7.3432159423828125,3.844207763671875,-3.828521728515625
1702338747667179300,98.48917919921875,7.6727142333984375,4.644439697265625,-1.4278564453125
1702338747766269700,98.58826977539063,8.802444458007812,5.1622161865234375,0.329498291015625
1702338747865543400,98.68754345703125,7.9080810546875,5.38189697265625,2.9812164306640625
1702338747964115200,98.786115234375,5.5858612060546875,4.7542724609375,6.558685302734375
1702338748063114200,98.8851142578125,2.8870697021484375,4.6130523681640625,8.394500732421875
1702338748162052000,98.98405200195313,1.3180084228515625,5.20928955078125,8.410186767578125
1702338748261051100,99.08305102539063,1.145416259765625,5.38189697265625,8.52001953125
1702338748360081000,99.18208081054688,1.64752197265625,5.3505096435546875,8.472946166992188
1702338748459049200,99.28104931640625,3.0753631591796875,5.1151580810546875,6.135040283203125
1702338748558200800,99.38020092773438,6.009521484375,4.267852783203125,4.377685546875
1702338748657718800,99.47971875,7.07647705078125,2.05548095703125,6.7155914306640625
1702338748756076800,99.57807690429688,8.91229248046875,-0.533477783203125,7.48443603515625
1702338748854953700,99.67695361328126,8.818145751953125,-0.39227294921875,2.588958740234375
1702338748953922300,99.77592236328125,9.320236206054688,-0.329498291015625,-0.109832763671875
1702338749052891000,99.87489086914063,9.5399169921875,-0.6590118408203125,0.39227294921875
1702338749151859500,99.973859375,10.19891357421875,-0.313812255859375,-0.737457275390625
1702338749250827800,100.07282788085938,9.586990356445312,-1.2081756591796875,-1.4278411865234375
1702338749349491200,100.1714912109375,10.748092651367188,-0.5648651123046875,-2.792938232421875
1702338749448154600,100.27015454101563,8.347427368164062,-0.83160400390625,-3.2636566162109375
1702338749547764000,100.36976391601563,8.567092895507812,-0.517791748046875,-1.8671875
1702338749646854400,100.4688544921875,8.927978515625,-0.18829345703125,-2.91845703125
1702338749745548300,100.56754833984375,9.084884643554688,-0.42364501953125,-2.996917724609375
1702338749844120000,100.6661201171875,9.445770263671875,-0.078460693359375,-1.6004486083984375
1702338749943638000,100.76563793945313,10.261688232421875,-0.0313873291015625,-0.407958984375
1702338750042057200,100.86405712890625,9.806655883789062,-0.0313873291015625,0.1255340576171875
1702338750141666600,100.96366650390625,9.681121826171875,-0.078460693359375,0.1412200927734375
1702338750240635000,101.062634765625,9.712509155273438,-0.078460693359375,0.1725921630859375
1702338750339664600,101.16166455078125,9.681121826171875,-0.094146728515625,0.1569061279296875
1702338750438694100,101.26069409179688,9.712509155273438,-0.094146728515625,0.1569061279296875
1702338750537693200,101.35969311523438,9.681121826171875,-0.094146728515625,0.1255340576171875
1702338750636814000,101.45881396484376,9.696823120117188,-0.0627593994140625,0.1725921630859375
1702338750736087800,101.558087890625,9.728195190429688,-0.0627593994140625,0.1725921630859375
1702338750834720800,101.656720703125,9.728195190429688,-0.0470733642578125,0.1569061279296875
1702338750933719800,101.7557197265625,9.665435791015625,-0.078460693359375,0.2039794921875
1702338751032749300,101.85474926757813,9.696823120117188,-0.078460693359375,0.1569061279296875
1702338751131778800,101.95377880859375,9.696823120117188,-0.062774658203125,0.1569061279296875
1702338751230686200,102.05268627929688,9.681121826171875,-0.094146728515625,0.1412200927734375
1702338751329715700,102.1517158203125,9.743881225585938,-0.078460693359375,0.1569061279296875
1702338751428745200,102.2507451171875,9.665435791015625,-0.078460693359375,0.1725921630859375
1702338751527775000,102.34977490234375,9.728195190429688,-0.094146728515625,0.1725921630859375
1702338751626804500,102.44880444335938,9.696823120117188,-0.094146728515625,0.1569061279296875
1702338751725803500,102.54780346679688,9.681121826171875,-0.078460693359375,0.1569061279296875
1702338751824833000,102.6468330078125,9.712509155273438,-0.078460693359375,0.1569061279296875
1702338751923832000,102.74583203125,9.728195190429688,-0.078460693359375,0.1412200927734375
1702338752025181000,102.84718090820313,9.728195190429688,-0.078460693359375,0.1412200927734375
1702338752537204700,103.35920483398438,9.728195190429688,-0.078460693359375,0.1176910400390625
1702338752695316500,103.51731640625,9.728195190429688,-0.0392303466796875,0.1569061279296875
1702338752853489000,103.67548901367188,9.649749755859375,-0.0392303466796875,0.1176910400390625
1702338753011631000,103.83363110351563,9.688980102539062,-0.1176910400390625,0.1569061279296875
1702338753169773000,103.99177294921876,9.688980102539062,-0.078460693359375,0.1569061279296875
1702338753327945700,104.14994580078125,9.688980102539062,-0.078460693359375,0.1569061279296875
1702338753486057500,104.30805737304688,9.688980102539062,-0.078460693359375,0.1569061279296875
1702338753644199400,104.46619946289063,9.649749755859375,-0.078460693359375,0.1569061279296875
1702338753802311000,104.62431079101563,9.688980102539062,-0.1176910400390625,0.1176910400390625
1702338753960483600,104.78248364257813,9.728195190429688,-0.078460693359375,0.1176910400390625
1702338754118656300,104.94065625,9.728195190429688,-0.078460693359375,0.1176910400390625
1702338754276004900,105.0980048828125,9.728195190429688,-0.0392303466796875,0.1569061279296875
1702338754434940400,105.2569404296875,9.728195190429688,-0.078460693359375,0.1569061279296875
1702338754593082400,105.41508227539063,9.728195190429688,-0.1569061279296875,0.196136474609375
1702338754751285500,105.57328540039063,9.728195190429688,-0.078460693359375,0.1569061279296875
1702338754909427700,105.731427734375,9.728195190429688,-0.078460693359375,0.1569061279296875
1702338755067539200,105.88953930664063,9.728195190429688,-0.0392303466796875,0.1176910400390625
1702338755225681400,106.04768139648438,9.688980102539062,-0.0392303466796875,0.1569061279296875
1702338755383793000,106.20579296875,9.728195190429688,-0.078460693359375,0.1569061279296875
1702338755541996000,106.36399609375,9.728195190429688,-0.078460693359375,0.196136474609375
1702338755700016000,106.52201611328125,9.688980102539062,-0.1176910400390625,0.196136474609375
1702338755858280200,106.6802802734375,9.728195190429688,-0.078460693359375,0.1569061279296875
1702338756016361200,106.838361328125,9.688980102539062,-0.078460693359375,0.2353668212890625
1702338756174473000,106.99647290039063,9.649749755859375,-0.078460693359375,0.1569061279296875
1702338756332615000,107.15461499023438,9.767425537109375,-0.0392303466796875,0.1569061279296875
1702338756489963500,107.31196362304688,9.688980102539062,-0.1176910400390625,0.1569061279296875
1702338756649021200,107.47102124023438,9.688980102539062,-0.078460693359375,0.1569061279296875
1702338756807010800,107.6290107421875,9.688980102539062,-0.1176910400390625,0.1176910400390625
1702338756965152800,107.78715283203125,9.688980102539062,-0.078460693359375,0.1176910400390625
1702338757123203300,107.94520336914063,9.688980102539062,-0.078460693359375,0.1176910400390625
1702338757281437000,108.10343701171875,9.728195190429688,-0.0392303466796875,0.196136474609375
1702338757439558400,108.26155834960937,9.728195190429688,-0.0392303466796875,0.1569061279296875
1702338757597609000,108.41960888671875,9.728195190429688,-0.078460693359375,0.1569061279296875
1702338757755812000,108.57781201171875,9.728195190429688,-0.078460693359375,0.1569061279296875
1702338757913954300,108.73595434570312,9.728195190429688,-0.078460693359375,0.1569061279296875
1702338758072065800,108.89406567382812,9.649749755859375,-0.078460693359375,0.1176910400390625
1702338758230177300,109.05217724609375,9.728195190429688,-0.0392303466796875,0.1569061279296875
1702338758388289000,109.2102890625,9.728195190429688,-0.0392303466796875,0.1569061279296875
1702338758546461700,109.36846166992187,9.728195190429688,-0.078460693359375,0.1569061279296875
1702338758703779600,109.52577954101562,9.649749755859375,-0.078460693359375,0.1176910400390625
1702338758862654200,109.684654296875,9.728195190429688,-0.1176910400390625,0.196136474609375
1702338759020796400,109.84279638671875,9.649749755859375,-0.1569061279296875,0.196136474609375
1702338759178938400,110.0009384765625,9.649749755859375,-0.078460693359375,0.1569061279296875
1702338759337049900,110.1590498046875,9.688980102539062,-0.0392303466796875,0.1569061279296875
1702338759495161600,110.31716162109375,9.728195190429688,-0.078460693359375,0.196136474609375
1702338759653303600,110.47530346679687,9.649749755859375,-0.078460693359375,0.1569061279296875
1702338759810683000,110.63268286132812,9.688980102539062,0,0.1569061279296875
1702338759969587700,110.79158764648437,9.728195190429688,-0.078460693359375,0.1569061279296875
1702338760127760400,110.94976049804687,9.728195190429688,-0.078460693359375,0.1569061279296875
1702338760285871900,111.10787182617187,9.728195190429688,-0.078460693359375,0.1569061279296875
1702338760444014000,111.26601416015625,9.688980102539062,-0.0392303466796875,0.196136474609375
1702338760602156000,111.42415600585937,9.688980102539062,-0.0392303466796875,0.2353668212890625
1702338760760267800,111.58226782226562,9.688980102539062,-0.0392303466796875,0.1176910400390625
1702338760917921500,111.73992163085937,9.688980102539062,0,0.1569061279296875
1702338761076521500,111.898521484375,9.649749755859375,-0.078460693359375,0.1569061279296875
1702338761234633000,112.05663305664062,9.688980102539062,-0.078460693359375,0.1569061279296875
1702338761392744400,112.21474438476562,9.688980102539062,-0.0392303466796875,0.078460693359375
1702338761550856200,112.37285620117187,9.688980102539062,-0.078460693359375,0.1176910400390625
1702338761708998100,112.530998046875,9.728195190429688,-0.078460693359375,0.1569061279296875
1702338761868330500,112.69033056640625,9.688980102539062,-0.078460693359375,0.1569061279296875
1702338762025374000,112.8473740234375,9.688980102539062,-0.078460693359375,0.1569061279296875
1702338762183363300,113.00536328125,9.649749755859375,-0.078460693359375,0.1569061279296875
1702338762341475000,113.16347509765625,9.728195190429688,-0.0392303466796875,0.1569061279296875
1702338762499647500,113.3216474609375,9.728195190429688,-0.078460693359375,0.1176910400390625
1702338763309523200,114.13152319335937,9.68896484375,-0.11767578125,0.176513671875
1702338763408278000,114.23027807617187,9.68896484375,-0.0980682373046875,0.1569061279296875
1702338763506910700,114.32891064453125,9.649749755859375,-0.11767578125,0.137298583984375
1702338763606062300,114.42806225585937,9.669357299804688,-0.058837890625,0.176513671875
1702338763704481500,114.5264814453125,9.630126953125,-0.058837890625,0.1569061279296875
1702338763803236600,114.62523657226562,9.630126953125,-0.078460693359375,0.196136474609375
1702338763901961000,114.7239609375,9.669357299804688,-0.078460693359375,0.1569061279296875
1702338764000685300,114.82268530273437,9.68896484375,-0.0980682373046875,0.0980682373046875
1702338764099409700,114.92140966796875,9.669357299804688,-0.0980682373046875,0.176513671875
1702338764198195000,115.02019482421875,9.68896484375,-0.137298583984375,0.176513671875
1702338764296858400,115.1188583984375,9.68896484375,-0.0980682373046875,0.196136474609375
1702338764395643600,115.2176435546875,9.708587646484375,-0.1569061279296875,0.1569061279296875
1702338764494307000,115.31630712890625,9.630126953125,-0.078460693359375,0.137298583984375
1702338764592848400,115.41484838867187,9.649749755859375,-0.0980682373046875,0.176513671875
1702338764691572700,115.51357275390625,9.708587646484375,-0.0980682373046875,0.2157440185546875
1702338764790358000,115.61235791015625,9.68896484375,-0.0980682373046875,0.196136474609375
1702338764889021400,115.711021484375,9.728195190429688,-0.0980682373046875,0.2353668212890625
1702338764987806700,115.809806640625,9.708587646484375,-0.078460693359375,0.176513671875
1702338765086561800,115.90856176757812,9.669357299804688,-0.0980682373046875,0.176513671875
1702338765185133600,116.00713354492187,9.649749755859375,-0.11767578125,0.176513671875
1702338765283949300,116.10594921875,9.68896484375,-0.11767578125,0.1569061279296875
1702338765382673700,116.20467358398437,9.649749755859375,-0.11767578125,0.1569061279296875
1702338765484541400,116.30654150390625,9.669357299804688,-0.0980682373046875,0.176513671875
1702338765580671700,116.40267163085937,9.649749755859375,-0.137298583984375,0.1569061279296875
1702338765678968800,116.50096875,9.630126953125,-0.137298583984375,0.176513671875
1702338765777083000,116.59908276367187,9.649749755859375,-0.11767578125,0.2157440185546875
1702338765877485800,116.69948583984375,9.649749755859375,-0.137298583984375,0.196136474609375
1702338765974592800,116.7965927734375,9.610519409179688,-0.11767578125,0.196136474609375
1702338766073530600,116.89553051757812,9.68896484375,-0.078460693359375,0.176513671875
1702338766172499200,116.99449926757812,9.669357299804688,-0.058837890625,0.2157440185546875
1702338766271101400,117.09310131835937,9.669357299804688,-0.0980682373046875,0.2157440185546875
1702338766370131000,117.192130859375,9.68896484375,-0.137298583984375,0.2353668212890625
1702338766468672300,117.29067236328125,9.68896484375,-0.137298583984375,0.176513671875
1702338766567671300,117.38967138671875,9.68896484375,-0.176513671875,0.196136474609375
1702338766666426000,117.48842602539062,9.669357299804688,-0.1569061279296875,0.196136474609375
1702338766765150500,117.587150390625,9.669357299804688,-0.137298583984375,0.196136474609375
1702338766863905500,117.68590551757812,9.68896484375,-0.11767578125,0.176513671875
1702338766962660400,117.78466040039062,9.728195190429688,-0.11767578125,0.176513671875
1702338767061354200,117.88335424804687,9.708587646484375,-0.11767578125,0.196136474609375
1702338767160109000,117.98210913085937,9.68896484375,-0.0980682373046875,0.1569061279296875
1702338767258741800,118.08074169921875,9.630126953125,-0.0980682373046875,0.137298583984375
1702338767357496800,118.17949682617187,9.649749755859375,-0.078460693359375,0.1569061279296875
1702338767456251600,118.27825170898437,9.68896484375,-0.078460693359375,0.176513671875
1702338767554945500,118.37694555664062,9.708587646484375,-0.058837890625,0.196136474609375
1702338767653700400,118.47570043945312,9.708587646484375,-0.0980682373046875,0.176513671875
1702338767752394200,118.57439428710937,9.590911865234375,-0.11767578125,0.2157440185546875
1702338767851423700,118.673423828125,9.649749755859375,-0.058837890625,0.196136474609375
1702338767949937000,118.77193701171875,9.630126953125,-0.058837890625,0.176513671875
1702338768048630800,118.870630859375,9.610519409179688,-0.0980682373046875,0.2353668212890625
1702338768147324700,118.96932470703125,9.649749755859375,-0.0980682373046875,0.176513671875
1702338768246079500,119.06807958984375,9.649749755859375,-0.11767578125,0.176513671875
1702338768344834300,119.16683422851563,9.68896484375,-0.0980682373046875,0.11767578125
1702338768443833300,119.26583325195313,9.669357299804688,-0.11767578125,0.176513671875
1702338768542619000,119.36461889648437,9.708587646484375,-0.11767578125,0.196136474609375
1702338784317855200,135.13985522460936,9.649749755859375,-0.058837890625,0.137298583984375
1702338784416671200,135.2386711425781,9.669357299804688,-0.11767578125,0.11767578125
1702338784515395600,135.3373955078125,9.669357299804688,-0.0392303466796875,0.137298583984375
1702338784614364200,135.4363642578125,9.610519409179688,-0.0392303466796875,0.176513671875
1702338784713058000,135.53505810546875,9.669357299804688,-0.078460693359375,0.2353668212890625
1702338784814864600,135.63686474609375,9.708587646484375,-0.137298583984375,0.196136474609375
1702338785011062000,135.83306201171874,9.649749755859375,-0.0980682373046875,0.2157440185546875
1702338785107375600,135.92937573242187,9.68896484375,-0.11767578125,0.2157440185546875
1702338785206222000,136.02822216796875,9.5712890625,-0.11767578125,0.2157440185546875
1702338785305160000,136.12715991210936,9.669357299804688,-0.11767578125,0.196136474609375
1702338785403853800,136.2258537597656,9.649749755859375,-0.078460693359375,0.2157440185546875
1702338785502883300,136.32488330078124,9.669357299804688,-0.078460693359375,0.2157440185546875
1702338785917648000,136.73964794921875,9.728195190429688,-0.078460693359375,0.1176910400390625
1702338786669082000,137.49108203125,9.712509155273438,-0.109832763671875,0.1255340576171875
1702338786768020200,137.59002026367187,9.665435791015625,-0.078460693359375,0.1569061279296875
1702338786867019000,137.68901904296874,9.728195190429688,-0.078460693359375,0.1569061279296875
1702338786966048800,137.788048828125,9.75958251953125,-0.078460693359375,0.1412200927734375
1702338787065078300,137.88707836914062,9.728195190429688,-0.078460693359375,0.109832763671875
1702338787164077300,137.98607739257812,9.728195190429688,-0.0313873291015625,0.1569061279296875
1702338787698073900,138.52007397460937,9.767425537109375,-0.0392303466796875,0.196136474609375
1702338787856185300,138.67818530273436,9.728195190429688,-0.0392303466796875,0.1569061279296875
1702338788013534000,138.83553393554686,9.649749755859375,-0.078460693359375,0.196136474609375
1702338788172225500,138.9942255859375,9.649749755859375,-0.078460693359375,0.196136474609375
1702338788330367500,139.1523674316406,9.649749755859375,-0.078460693359375,0.1569061279296875
1702338788488540200,139.3105400390625,9.649749755859375,-0.078460693359375,0.1569061279296875
1702338788646865400,139.46886547851562,9.649749755859375,-0.078460693359375,0.1569061279296875
1702338788804977000,139.6269768066406,9.728195190429688,-0.0392303466796875,0.2353668212890625
1702338788963119000,139.785119140625,9.728195190429688,-0.078460693359375,0.196136474609375
1702338789120437000,139.94243701171874,9.688980102539062,-0.078460693359375,0.1569061279296875
1702338789279311600,140.1013115234375,9.728195190429688,-0.078460693359375,0.1569061279296875
1702338789437484300,140.259484375,9.688980102539062,-0.078460693359375,0.1569061279296875
1702338789595595800,140.417595703125,9.649749755859375,-0.0392303466796875,0.1569061279296875
1702338789753707300,140.5757072753906,9.688980102539062,-0.078460693359375,0.1176910400390625
1702338789911819000,140.73381909179687,9.688980102539062,-0.0392303466796875,0.1569061279296875
1702338790069961000,140.8919609375,9.767425537109375,0,0.1569061279296875
1702338790228042000,141.0500419921875,9.728195190429688,0,0.1569061279296875
1702338790386184200,141.20818408203124,9.649749755859375,0,0.1569061279296875
1702338790544600800,141.3666008300781,9.728195190429688,-0.078460693359375,0.196136474609375
1702338790702468400,141.52446826171874,9.728195190429688,-0.078460693359375,0.1569061279296875
1702338790860610600,141.68261059570312,9.728195190429688,-0.078460693359375,0.1569061279296875
1702338791018752500,141.84075244140624,9.728195190429688,-0.0392303466796875,0.1569061279296875
1702338791176833500,141.99883349609374,9.649749755859375,-0.1176910400390625,0.1569061279296875
1702338791334182100,142.15618212890624,9.688980102539062,-0.078460693359375,0.1176910400390625
1702338791493087200,142.3150871582031,9.688980102539062,-0.078460693359375,0.078460693359375
1702338792323287600,143.14528759765625,9.696823120117188,-0.01568603515625,0.1412200927734375
1702338792422286300,143.2442863769531,9.728195190429688,-0.062774658203125,0.172607421875
1702338792521346600,143.3433466796875,9.728195190429688,-0.01568603515625,0.1569061279296875
1702338792620589600,143.44258959960936,9.649749755859375,-0.062774658203125,0.1725921630859375
1702338792719558100,143.54155810546874,9.728195190429688,-0.0470733642578125,0.1412200927734375
1702338792818496300,143.64049633789062,9.681121826171875,-0.078460693359375,0.1569061279296875
1702338793352431600,144.174431640625,9.767425537109375,-0.078460693359375,0.1569061279296875
1702338793510756900,144.3327568359375,9.728195190429688,-0.078460693359375,0.1569061279296875
1702338793669265200,144.49126513671874,9.728195190429688,-0.078460693359375,0.1176910400390625
1702338793826949600,144.64894970703125,9.728195190429688,-0.078460693359375,0.1569061279296875
1702338793985122000,144.8071220703125,9.728195190429688,-0.1176910400390625,0.1569061279296875
1702338794143264300,144.96526416015624,9.728195190429688,-0.078460693359375,0.1569061279296875
1702338794301437000,145.12343701171875,9.688980102539062,-0.078460693359375,0.1176910400390625
1702338794459399200,145.28139916992188,9.688980102539062,-0.078460693359375,0.1176910400390625
1702338794617694000,145.43969384765626,9.728195190429688,-0.078460693359375,0.1569061279296875
1702338794775866600,145.59786669921874,9.688980102539062,-0.078460693359375,0.1569061279296875
1702338794934008600,145.75600854492188,9.728195190429688,-0.078460693359375,0.1569061279296875
1702338795092273000,145.91427294921874,9.688980102539062,-0.078460693359375,0.196136474609375
1702338795250292700,146.07229272460938,9.688980102539062,-0.0392303466796875,0.1569061279296875
1702338795408465400,146.23046533203126,9.728195190429688,-0.0392303466796875,0.1569061279296875
1702338795565814000,146.38781396484376,9.688980102539062,-0.078460693359375,0.196136474609375
1702338795724719000,146.54671899414063,9.728195190429688,-0.078460693359375,0.1569061279296875
1702338795882891800,146.70489184570312,9.728195190429688,0,0.1176910400390625
1702338796041033700,146.86303369140626,9.728195190429688,-0.078460693359375,0.1569061279296875
1702338796199176000,147.02117602539062,9.767425537109375,-0.078460693359375,0.1569061279296875
1702338796357287400,147.17928735351563,9.728195190429688,-0.1176910400390625,0.1569061279296875
1702338796515429600,147.3374296875,9.728195190429688,-0.078460693359375,0.1569061279296875
1702338796673144300,147.49514428710938,9.649749755859375,-0.078460693359375,0.1569061279296875
1702338796831683000,147.65368310546876,9.728195190429688,-0.0392303466796875,0.1569061279296875
1702338796989703200,147.811703125,9.728195190429688,-0.078460693359375,0.1569061279296875
1702338797147967500,147.96996752929687,9.728195190429688,-0.078460693359375,0.1569061279296875
1702338797306079000,148.12807885742188,9.688980102539062,-0.0392303466796875,0.1569061279296875
1702338797464251600,148.28625170898437,9.688980102539062,-0.078460693359375,0.1569061279296875
1702338797622363100,148.44436303710938,9.728195190429688,-0.078460693359375,0.1569061279296875
1702338797779772700,148.60177270507813,9.728195190429688,0,0.1569061279296875
1702338797938983000,148.76098291015626,9.649749755859375,-0.0392303466796875,0.2353668212890625
1702338798096881000,148.918880859375,9.728195190429688,-0.078460693359375,0.1569061279296875
1702338798254962000,149.0769619140625,9.728195190429688,-0.078460693359375,0.1569061279296875
1702338798413165000,149.2351650390625,9.728195190429688,-0.078460693359375,0.1176910400390625
1702338798571337700,149.39333764648438,9.688980102539062,-0.078460693359375,0.1569061279296875
1702338798729449200,149.55144921875,9.688980102539062,-0.078460693359375,0.1176910400390625
1702338798889269800,149.71126977539063,9.688980102539062,-0.078460693359375,0.1569061279296875
1702338799045580800,149.86758081054688,9.728195190429688,-0.078460693359375,0.1569061279296875
1702338799203662000,150.025662109375,9.728195190429688,-0.1176910400390625,0.1569061279296875
1702338799361804000,150.18380395507813,9.649749755859375,-0.078460693359375,0.1569061279296875
1702338799520251400,150.34225146484374,9.728195190429688,-0.078460693359375,0.1569061279296875
1702338799678393300,150.50039331054688,9.688980102539062,-0.078460693359375,0.1569061279296875
1702338799836566000,150.65856591796876,9.688980102539062,-0.078460693359375,0.1569061279296875
1702338799993914600,150.81591455078126,9.728195190429688,-0.078460693359375,0.1569061279296875
1702338800152880600,150.97488061523438,9.688980102539062,-0.078460693359375,0.1569061279296875
1702338800310992400,151.13299243164062,9.649749755859375,0,0.1569061279296875
1702338800469164800,151.29116479492188,9.728195190429688,-0.0392303466796875,0.1569061279296875
1702338800627307000,151.44930712890624,9.728195190429688,-0.078460693359375,0.1569061279296875
1702338800785479700,151.60747973632812,9.688980102539062,-0.078460693359375,0.1176910400390625
1702338800943591200,151.76559106445313,9.728195190429688,-0.1176910400390625,0.1176910400390625
1702338801100970200,151.92297021484376,9.688980102539062,-0.1176910400390625,0.1569061279296875
1702338801259875300,152.08187524414063,9.688980102539062,-0.078460693359375,0.1176910400390625
1702338801418017500,152.240017578125,9.728195190429688,-0.078460693359375,0.1569061279296875
1702338801576159500,152.39815942382813,9.649749755859375,0,0.1569061279296875
1702338801734301700,152.5563017578125,9.688980102539062,-0.0392303466796875,0.1569061279296875
1702338801892443600,152.71444360351563,9.728195190429688,-0.0392303466796875,0.1569061279296875
1702338802050585900,152.8725859375,9.688980102539062,-0.078460693359375,0.1569061279296875
1702338802208239600,153.03023950195313,9.688980102539062,-0.078460693359375,0.1569061279296875
1702338802366839600,153.18883959960937,9.728195190429688,-0.078460693359375,0.1569061279296875
1702338802524981500,153.3469814453125,9.728195190429688,-0.078460693359375,0.1569061279296875
1702338802683123700,153.50512377929687,9.728195190429688,-0.1176910400390625,0.1569061279296875
1702338802841235200,153.66323510742188,9.728195190429688,-0.078460693359375,0.2353668212890625
1702338802999377400,153.82137744140624,9.728195190429688,-0.1176910400390625,0.1569061279296875
1702338803157489000,153.97948901367187,9.728195190429688,-0.078460693359375,0.196136474609375
1702338803315630800,154.137630859375,9.728195190429688,-0.0392303466796875,0.1569061279296875
1702338804125598000,154.94759790039063,9.728195190429688,-0.1569061279296875,0.176513671875
1702338804224322300,155.046322265625,9.728195190429688,-0.11767578125,0.196136474609375
1702338804323046700,155.14504663085938,9.728195190429688,-0.1569061279296875,0.2157440185546875
1702338804421812700,155.24381274414063,9.708587646484375,-0.137298583984375,0.2157440185546875
1702338804520537000,155.342537109375,9.669357299804688,-0.11767578125,0.196136474609375
1702338804619231000,155.44123095703125,9.708587646484375,-0.11767578125,0.176513671875
1702338804719145500,155.5411455078125,9.68896484375,-0.0980682373046875,0.196136474609375
1702338804816679700,155.6386796875,9.708587646484375,-0.11767578125,0.2157440185546875
1702338804915434500,155.7374345703125,9.68896484375,-0.0980682373046875,0.176513671875
1702338805014158800,155.83615893554688,9.708587646484375,-0.11767578125,0.196136474609375
1702338805112852700,155.93485278320313,9.68896484375,-0.11767578125,0.1569061279296875
1702338805212157000,156.03415698242188,9.708587646484375,-0.078460693359375,0.1569061279296875
1702338805310240500,156.13224047851563,9.68896484375,-0.11767578125,0.1569061279296875
1702338805408995300,156.23099536132813,9.68896484375,-0.0980682373046875,0.176513671875
1702338805507719700,156.3297197265625,9.649749755859375,-0.0980682373046875,0.176513671875
1702338805606444000,156.42844409179688,9.5712890625,-0.0980682373046875,0.2157440185546875
1702338805705168400,156.52716845703125,9.551681518554688,-0.058837890625,0.176513671875
1702338805803923500,156.62592333984375,9.630126953125,-0.0980682373046875,0.1569061279296875
1702338805902525700,156.72452563476563,9.68896484375,-0.0980682373046875,0.2157440185546875
1702338806001402600,156.82340258789063,9.708587646484375,-0.078460693359375,0.196136474609375
1702338806100157400,156.92215747070313,9.649749755859375,-0.078460693359375,0.176513671875
1702338806198881800,157.0208818359375,9.669357299804688,-0.0980682373046875,0.176513671875
1702338806297636900,157.11963696289064,9.728195190429688,-0.11767578125,0.196136474609375
1702338806554655700,157.37665576171875,9.728195190429688,-0.078460693359375,0.1569061279296875
1702338806653716000,157.47571606445314,9.743881225585938,-0.078460693359375,0.1569061279296875
1702338806752836900,157.5748369140625,9.712509155273438,-0.078460693359375,0.1725921630859375
1702338806851713800,157.6737138671875,9.665435791015625,-0.078460693359375,0.1569061279296875
1702338806950590700,157.7725908203125,9.712509155273438,-0.078460693359375,0.1569061279296875
1702338807049315300,157.8713154296875,9.681121826171875,-0.062774658203125,0.1569061279296875
1702338807148527900,157.97052783203125,9.728195190429688,-0.062774658203125,0.1412200927734375
1702338807682768600,158.5047685546875,9.688980102539062,-0.1176910400390625,0.1569061279296875
1702338807840941000,158.66294116210938,9.649749755859375,-0.078460693359375,0.1569061279296875
1702338807999083300,158.82108325195313,9.688980102539062,-0.078460693359375,0.1176910400390625
1702338808157194800,158.97919482421875,9.728195190429688,-0.0392303466796875,0.078460693359375
1702338808315367400,159.13736743164063,9.728195190429688,-0.078460693359375,0.1569061279296875
1702338808473509600,159.29550952148438,9.728195190429688,-0.1176910400390625,0.1569061279296875
1702338808631651600,159.45365161132813,9.728195190429688,-0.078460693359375,0.196136474609375
1702338808789763300,159.6117634277344,9.728195190429688,0,0.1569061279296875
1702338808947874800,159.76987475585938,9.688980102539062,-0.078460693359375,0.1569061279296875
1702338809105986300,159.927986328125,9.728195190429688,-0.078460693359375,0.1569061279296875
1702338809263396000,160.08539599609375,9.688980102539062,-0.078460693359375,0.2353668212890625
1702338809422331600,160.24433154296875,9.767425537109375,-0.0392303466796875,0.196136474609375
1702338809580473600,160.4024736328125,9.688980102539062,-0.0392303466796875,0.1569061279296875
1702338809738646300,160.56064624023438,9.649749755859375,-0.078460693359375,0.196136474609375
1702338809896788200,160.71878833007813,9.728195190429688,-0.078460693359375,0.1569061279296875
1702338810054930400,160.87693041992188,9.728195190429688,-0.078460693359375,0.1569061279296875
1702338810213042000,161.0350419921875,9.767425537109375,-0.1176910400390625,0.078460693359375
1702338810371214600,161.19321459960938,9.688980102539062,-0.078460693359375,0.1569061279296875
1702338810529326000,161.351326171875,9.688980102539062,-0.078460693359375,0.1569061279296875
1702338810687437800,161.50943774414063,9.728195190429688,-0.078460693359375,0.1569061279296875
1702338810845549300,161.66754931640625,9.688980102539062,-0.078460693359375,0.1569061279296875
1702338811003752400,161.82575244140625,9.649749755859375,-0.078460693359375,0.1569061279296875
1702338811359740000,162.18173999023438,9.75958251953125,-0.078460693359375,0.1569061279296875
1702338811459715600,162.28171557617188,9.681121826171875,-0.078460693359375,0.1255340576171875
1702338811557677000,162.37967700195313,9.728195190429688,-0.0470733642578125,0.172607421875
1702338811656676000,162.47867602539063,9.696823120117188,-0.062774658203125,0.1569061279296875
1702338811755644700,162.57764477539064,9.618362426757812,-0.078460693359375,0.1412200927734375
1702338811854643500,162.6766435546875,9.728195190429688,-0.078460693359375,0.1569061279296875
1702338812388518100,163.21051806640625,9.649749755859375,-0.078460693359375,0.196136474609375
1702338812546599200,163.36859912109375,9.688980102539062,-0.078460693359375,0.1569061279296875
1702338812704985300,163.5269853515625,9.728195190429688,-0.078460693359375,0.1569061279296875
1702338812863127600,163.68512744140625,9.728195190429688,-0.078460693359375,0.2353668212890625
1702338813219267600,164.041267578125,9.75958251953125,-0.078460693359375,0.1569061279296875
1702338813318144500,164.14014453125,9.728195190429688,-0.062774658203125,0.1569061279296875
1702338813417174000,164.23917407226563,9.728195190429688,-0.078460693359375,0.1569061279296875
1702338813516203500,164.33820361328125,9.712509155273438,-0.078460693359375,0.1569061279296875
1702338813615202600,164.43720263671875,9.728195190429688,-0.1255340576171875,0.109832763671875
1702338813714171100,164.53617114257813,9.665435791015625,-0.094146728515625,0.1569061279296875
1702338814248198100,165.0701982421875,9.688980102539062,-0.078460693359375,0.196136474609375
1702338814406392800,165.22839282226562,9.688980102539062,-0.078460693359375,0.196136474609375
1702338814564504300,165.38650439453124,9.649749755859375,-0.078460693359375,0.1569061279296875
1702338814722646500,165.544646484375,9.649749755859375,-0.078460693359375,0.1569061279296875
1702338814880727600,165.7027275390625,9.728195190429688,-0.078460693359375,0.1569061279296875
1702338815038869500,165.86086938476564,9.728195190429688,-0.1176910400390625,0.1569061279296875
1702338815196981200,166.01898120117187,9.688980102539062,-0.1176910400390625,0.1176910400390625
1702338815355154000,166.17715380859374,9.649749755859375,-0.0392303466796875,0.1569061279296875
1702338815513296000,166.3352958984375,9.728195190429688,-0.078460693359375,0.1569061279296875
1702338815671529500,166.49352954101562,9.688980102539062,-0.1176910400390625,0.196136474609375
1702338816027486500,166.84948657226562,9.712509155273438,-0.0313873291015625,0.18829345703125
1702338816126516200,166.94851611328124,9.665435791015625,-0.0313873291015625,0.2039794921875
1702338816225423600,167.04742358398437,9.696823120117188,-0.078460693359375,0.1412200927734375
1702338816324422700,167.14642260742187,9.649749755859375,-0.062774658203125,0.1412200927734375
1702338816423421700,167.24542163085937,9.665435791015625,-0.094146728515625,0.1569061279296875
1702338816522420700,167.34442065429687,9.696823120117188,-0.109832763671875,0.1412200927734375
1702338817056447700,167.87844775390624,9.688980102539062,-0.078460693359375,0.1569061279296875
1702338817213796400,168.03579638671874,9.728195190429688,-0.078460693359375,0.1569061279296875
1702338817372274200,168.19427416992187,9.728195190429688,-0.1176910400390625,0.196136474609375
1702338817530813000,168.35281298828124,9.688980102539062,-0.078460693359375,0.1569061279296875
1702338817688955100,168.510955078125,9.649749755859375,-0.078460693359375,0.196136474609375
1702338817847066600,168.66906665039062,9.649749755859375,-0.078460693359375,0.1569061279296875
1702338818005178000,168.82717822265624,9.728195190429688,-0.0392303466796875,0.078460693359375
1702338818163259100,168.98525903320314,9.767425537109375,-0.078460693359375,0.1569061279296875
1702338818321187800,169.14318774414062,9.688980102539062,-0.1176910400390625,0.1569061279296875
1702338818479512800,169.30151293945312,9.767425537109375,-0.078460693359375,0.1176910400390625
1702338818835500500,169.65750048828124,9.728195190429688,-0.078460693359375,0.1569061279296875
1702338818934499600,169.75649951171874,9.712509155273438,-0.062774658203125,0.1569061279296875
1702338819033346000,169.85534594726562,9.75958251953125,-0.078460693359375,0.1569061279296875
1702338819131887000,169.95388720703124,9.634063720703125,-0.094146728515625,0.1569061279296875
1702338819231343900,170.05334375,9.634063720703125,-0.078460693359375,0.1255340576171875
1702338819329763000,170.15176318359374,9.728195190429688,-0.062774658203125,0.1569061279296875
1702338819864492300,170.6864921875,9.688980102539062,-0.1176910400390625,0.1569061279296875
1702338820022634200,170.84463427734374,9.728195190429688,-0.0392303466796875,0.196136474609375
1702338820180745700,171.00274584960937,9.728195190429688,-0.078460693359375,0.1569061279296875
1702338820338094600,171.16009448242187,9.688980102539062,-0.078460693359375,0.1569061279296875
1702338820694967000,171.51696704101562,9.728195190429688,-0.078460693359375,0.1412200927734375
1702338820793935600,171.615935546875,9.681121826171875,-0.078460693359375,0.1412200927734375
1702338820892934700,171.7149345703125,9.649749755859375,-0.078460693359375,0.1725921630859375
1702338820991933700,171.81393359375,9.696823120117188,-0.078460693359375,0.1569061279296875
1702338821090902000,171.91290209960937,9.712509155273438,-0.094146728515625,0.1255340576171875
1702338821189901000,172.01190112304687,9.712509155273438,-0.078460693359375,0.1412200927734375
1702338821724019700,172.54601977539062,9.728195190429688,-0.1569061279296875,0.1569061279296875
1702338821882131500,172.70413134765624,9.688980102539062,-0.078460693359375,0.1569061279296875
1702338822040700700,172.86270068359374,9.728195190429688,-0.078460693359375,0.1569061279296875
1702338822198354400,173.0203544921875,9.649749755859375,-0.078460693359375,0.196136474609375
1702338822356466200,173.17846606445312,9.728195190429688,-0.078460693359375,0.196136474609375
1702338822514699800,173.33669970703124,9.728195190429688,-0.078460693359375,0.196136474609375
1702338822672872200,173.4948720703125,9.688980102539062,-0.0392303466796875,0.1569061279296875
1702338822831044900,173.653044921875,9.649749755859375,0,0.1569061279296875
1702338822989187000,173.81118701171874,9.688980102539062,-0.1569061279296875,0.1569061279296875
1702338823147329000,173.9693291015625,9.767425537109375,-0.078460693359375,0.1569061279296875
1702338823503408000,174.325408203125,9.728195190429688,-0.1412200927734375,0.1412200927734375
1702338823602407200,174.4244072265625,9.681121826171875,-0.062774658203125,0.1569061279296875
1702338823701406200,174.52340625,9.712509155273438,-0.094146728515625,0.1569061279296875
1702338823800405200,174.6224052734375,9.665435791015625,-0.1255340576171875,0.1569061279296875
1702338823899404300,174.721404296875,9.665435791015625,-0.062774658203125,0.1569061279296875
1702338823998403300,174.8204033203125,9.696823120117188,-0.078460693359375,0.18829345703125
1702338824532452000,175.3544521484375,9.72821044921875,-0.0392303466796875,0.1569061279296875
1702338824690594300,175.51259423828125,9.728195190429688,-0.078460693359375,0.1569061279296875
1702338824849285600,175.67128564453125,9.649749755859375,0,0.1569061279296875
1702338825006848000,175.82884790039063,9.728195190429688,-0.078460693359375,0.1569061279296875
1702338825164929000,175.98692895507813,9.688980102539062,-0.078460693359375,0.1569061279296875
1702338825323101700,176.14510180664064,9.688980102539062,-0.078460693359375,0.1176910400390625
1702338825481243600,176.30324365234375,9.649749755859375,-0.078460693359375,0.196136474609375
1702338825639416300,176.46141625976563,9.728195190429688,-0.078460693359375,0.1569061279296875
1702338825797589000,176.61958911132814,9.728195190429688,-0.078460693359375,0.1569061279296875
1702338825955670000,176.777669921875,9.649749755859375,-0.078460693359375,0.1176910400390625
1702338826113903600,176.93590356445313,9.610519409179688,-0.0392303466796875,0.1569061279296875
1702338826271923700,177.093923828125,9.649749755859375,0,0.1569061279296875
1702338826430218200,177.25221826171875,9.728195190429688,-0.078460693359375,0.196136474609375
1702338826588330000,177.410330078125,9.688980102539062,-0.078460693359375,0.2353668212890625
1702338826746349800,177.56834985351563,9.728195190429688,-0.078460693359375,0.1569061279296875
1702338826904461600,177.7264616699219,9.728195190429688,-0.078460693359375,0.196136474609375
1702338827260601600,178.0826015625,9.649749755859375,-0.109832763671875,0.1725921630859375
1702338827359509000,178.18150903320313,9.696823120117188,-0.062774658203125,0.1569061279296875
1702338827458508000,178.28050805664063,9.696823120117188,-0.078460693359375,0.1255340576171875
1702338827557507000,178.37950708007813,9.696823120117188,-0.0470733642578125,0.2039794921875
1702338827656536600,178.47853662109375,9.681121826171875,-0.062774658203125,0.18829345703125
1702338827755566300,178.57756640625,9.665435791015625,-0.078460693359375,0.1569061279296875
1702338828289532200,179.1115322265625,9.728195190429688,-0.1176910400390625,0.196136474609375
1702338828447735300,179.2697353515625,9.767425537109375,-0.0392303466796875,0.1569061279296875
1702338828605877500,179.42787744140625,9.728195190429688,-0.078460693359375,0.1569061279296875
1702338828764019700,179.58601977539064,9.728195190429688,-0.0392303466796875,0.1569061279296875
1702338829120037600,179.94203759765625,9.712509155273438,-0.094146728515625,0.1569061279296875
1702338829219036700,180.04103662109375,9.728195190429688,-0.109832763671875,0.1569061279296875
1702338829318066200,180.14006616210938,9.728195190429688,-0.062774658203125,0.1725921630859375
1702338829417065200,180.23906518554688,9.712509155273438,-0.125518798828125,0.1569061279296875
1702338829516094700,180.3380947265625,9.712509155273438,-0.078460693359375,0.1412200927734375
1702338829615093800,180.43709375,9.696823120117188,-0.094146728515625,0.1412200927734375
1702338830149243000,180.97124291992188,9.767425537109375,-0.1176910400390625,0.1569061279296875
1702338830306622200,181.12862231445314,9.728195190429688,-0.0392303466796875,0.1569061279296875
1702338830465557800,181.28755786132814,9.728195190429688,-0.0392303466796875,0.1569061279296875
1702338830623669200,181.44566918945313,9.728195190429688,-0.078460693359375,0.1569061279296875
1702338830781842000,181.60384204101564,9.728195190429688,-0.078460693359375,0.1569061279296875
1702338830939984000,181.76198388671875,9.688980102539062,-0.0392303466796875,0.1569061279296875
1702338831098126000,181.9201259765625,9.688980102539062,-0.078460693359375,0.1569061279296875
1702338831256237600,182.07823754882813,9.649749755859375,-0.1176910400390625,0.2353668212890625
1702338831413616600,182.23561669921875,9.649749755859375,-0.1176910400390625,0.1569061279296875
1702338831572552200,182.39455224609375,9.649749755859375,-0.0392303466796875,0.1569061279296875
1702338831730664000,182.55266381835938,9.728195190429688,-0.078460693359375,0.1569061279296875
1702338831888775400,182.710775390625,9.728195190429688,-0.0392303466796875,0.1569061279296875
1702338832046887000,182.86888696289063,9.688980102539062,-0.1176910400390625,0.1569061279296875
1702338832204968200,183.02696826171876,9.728195190429688,-0.078460693359375,0.1569061279296875
1702338832363110100,183.18511010742188,9.688980102539062,-0.1176910400390625,0.196136474609375
1702338832520641800,183.34264184570313,9.767425537109375,-0.078460693359375,0.1569061279296875
1702338832679333400,183.50133349609376,9.688980102539062,-0.078460693359375,0.1569061279296875
1702338832837505800,183.659505859375,9.728195190429688,-0.078460693359375,0.1569061279296875
1702338832995648000,183.81764794921875,9.728195190429688,-0.078460693359375,0.1569061279296875
1702338833153790200,183.97579028320314,9.688980102539062,-0.0392303466796875,0.1569061279296875
1702338833311901700,184.13390161132813,9.688980102539062,-0.078460693359375,0.1569061279296875
1702338833470074400,184.29207446289064,9.728195190429688,-0.078460693359375,0.1176910400390625
1702338833628826600,184.45082666015625,9.728195190429688,-0.078460693359375,0.1569061279296875
1702338833786328000,184.608328125,9.688980102539062,-0.078460693359375,0.1569061279296875
1702338833944470000,184.76646997070313,9.688980102539062,-0.078460693359375,0.1569061279296875
1702338834102612200,184.9246123046875,9.728195190429688,0,0.078460693359375
1702338834260723700,185.0827236328125,9.688980102539062,-0.0392303466796875,0.1176910400390625
1702338834420139000,185.24213891601562,9.728195190429688,-0.078460693359375,0.1569061279296875
1702338834577060400,185.39906030273437,9.728195190429688,-0.078460693359375,0.1569061279296875
1702338834735202600,185.55720263671876,9.767425537109375,-0.078460693359375,0.1569061279296875
1702338834893314000,185.71531396484374,9.688980102539062,-0.078460693359375,0.1569061279296875
1702338835051547600,185.87354760742187,9.688980102539062,-0.078460693359375,0.196136474609375
1702338835209567700,186.03156762695312,9.728195190429688,-0.078460693359375,0.1569061279296875
1702338835367709700,186.18970971679687,9.688980102539062,-0.0392303466796875,0.196136474609375
1702338835525882400,186.34788232421874,9.688980102539062,-0.078460693359375,0.1569061279296875
1702338835683993900,186.50599389648437,9.767425537109375,-0.078460693359375,0.1569061279296875
1702338835842136000,186.66413598632812,9.728195190429688,-0.078460693359375,0.1569061279296875
1702338836000278000,186.82227807617187,9.649749755859375,-0.078460693359375,0.1569061279296875
1702338836158359300,186.980359375,9.728195190429688,-0.078460693359375,0.1569061279296875
1702338836316440300,187.1384404296875,9.688980102539062,-0.078460693359375,0.1569061279296875
1702338836474612700,187.29661279296874,9.728195190429688,-0.078460693359375,0.1569061279296875
1702338836632785400,187.45478540039062,9.688980102539062,-0.078460693359375,0.1569061279296875
1702338836790927600,187.612927734375,9.728195190429688,-0.078460693359375,0.1569061279296875
1702338836949100300,187.77110034179688,9.649749755859375,-0.078460693359375,0.1176910400390625
1702338837107242200,187.9292421875,9.728195190429688,-0.078460693359375,0.1569061279296875
1702338837265232000,188.08723193359376,9.688980102539062,-0.078460693359375,0.196136474609375
1702338837423496000,188.24549584960937,9.728195190429688,-0.078460693359375,0.1569061279296875
1702338837581607400,188.403607421875,9.728195190429688,-0.078460693359375,0.1569061279296875
1702338837739749600,188.56174951171874,9.728195190429688,-0.078460693359375,0.1569061279296875
1702338837897891600,188.7198916015625,9.728195190429688,-0.078460693359375,0.1569061279296875
1702338838055850800,188.87785083007813,9.728195190429688,-0.078460693359375,0.2353668212890625
1702338838214023200,189.03602319335937,9.728195190429688,-0.078460693359375,0.1569061279296875
1702338838372165400,189.19416528320312,9.649749755859375,-0.078460693359375,0.1569061279296875
1702338838530490600,189.35249072265626,9.688980102539062,-0.078460693359375,0.1569061279296875
1702338838688632600,189.51063256835937,9.728195190429688,-0.078460693359375,0.1176910400390625
1702338838846774800,189.66877490234376,9.728195190429688,-0.078460693359375,0.1176910400390625
1702338839004947500,189.82694750976563,9.728195190429688,-0.078460693359375,0.1569061279296875
1702338839163059000,189.98505883789062,9.688980102539062,-0.078460693359375,0.196136474609375
1702338839321170400,190.14317041015624,9.649749755859375,-0.0392303466796875,0.1569061279296875
1702338839479343000,190.30134301757812,9.728195190429688,-0.078460693359375,0.1569061279296875
1702338839637515800,190.45951586914063,9.728195190429688,-0.078460693359375,0.1569061279296875
1702338839795688200,190.61768823242187,9.728195190429688,-0.0392303466796875,0.1569061279296875
1702338839953830400,190.77583032226562,9.649749755859375,-0.0392303466796875,0.196136474609375
1702338840112003000,190.93400317382813,9.688980102539062,-0.078460693359375,0.1569061279296875
1702338840921939500,191.743939453125,9.747817993164062,-0.078460693359375,0.196136474609375
1702338841020694500,191.84269458007813,9.68896484375,-0.078460693359375,0.176513671875
1702338841119479800,191.94147973632812,9.649749755859375,-0.0980682373046875,0.2157440185546875
1702338841218112500,192.04011254882812,9.68896484375,-0.078460693359375,0.2157440185546875
1702338841316867600,192.13886767578126,9.68896484375,-0.11767578125,0.176513671875
1702338841415775000,192.23777490234374,9.669357299804688,-0.0980682373046875,0.176513671875
1702338841514377200,192.33637719726562,9.630126953125,-0.078460693359375,0.2353668212890625
1702338841613101600,192.4351015625,9.649749755859375,-0.0980682373046875,0.2353668212890625
1702338841711032600,192.53303247070312,9.630126953125,-0.078460693359375,0.2157440185546875
1702338841810550300,192.63255029296874,9.610519409179688,-0.058837890625,0.254974365234375
1702338841908511700,192.73051171875,9.5712890625,-0.078460693359375,0.2157440185546875
1702338842007541200,192.82954125976562,9.590911865234375,-0.0392303466796875,0.176513671875
1702338842106784500,192.92878442382812,9.669357299804688,-0.058837890625,0.1569061279296875
1702338842205508900,193.0275087890625,9.669357299804688,-0.058837890625,0.176513671875
1702338842304202800,193.12620263671874,9.610519409179688,-0.058837890625,0.1569061279296875
1702338842402988000,193.22498803710937,9.68896484375,-0.11767578125,0.1569061279296875
1702338842501743000,193.3237431640625,9.630126953125,-0.0980682373046875,0.176513671875
1702338842600467500,193.42246752929688,9.630126953125,-0.11767578125,0.2157440185546875
1702338842699191800,193.52119189453126,9.590911865234375,-0.078460693359375,0.176513671875
1702338842797946600,193.61994653320312,9.669357299804688,-0.078460693359375,0.1569061279296875
1702338842896671000,193.7186708984375,9.669357299804688,-0.0392303466796875,0.176513671875
1702338842995853000,193.81785302734374,9.68896484375,-0.058837890625,0.196136474609375
1702338843094150100,193.91615014648437,9.669357299804688,-0.078460693359375,0.176513671875
1702338843192874500,194.01487451171874,9.649749755859375,-0.0392303466796875,0.2157440185546875
1702338843292087300,194.11408740234376,9.630126953125,-0.0980682373046875,0.2353668212890625
1702338843390354000,194.21235400390626,9.669357299804688,-0.0980682373046875,0.196136474609375
1702338843489078300,194.31107836914063,9.669357299804688,-0.11767578125,0.176513671875
1702338843587802600,194.409802734375,9.68896484375,-0.078460693359375,0.2157440185546875
1702338843686527000,194.50852685546874,9.68896484375,-0.0980682373046875,0.2157440185546875
1702338843785281800,194.60728173828124,9.68896484375,-0.11767578125,0.196136474609375
1702338843884006100,194.70600610351562,9.68896484375,-0.137298583984375,0.2157440185546875
1702338843982761000,194.80476098632812,9.728195190429688,-0.1569061279296875,0.2157440185546875
1702338844082706200,194.9047060546875,9.708587646484375,-0.1569061279296875,0.196136474609375
1702338844180148700,195.00214868164062,9.669357299804688,-0.078460693359375,0.176513671875
1702338844278873000,195.100873046875,9.590911865234375,-0.058837890625,0.2157440185546875
1702338844377628000,195.1996279296875,9.610519409179688,-0.11767578125,0.176513671875
1702338844476306200,195.29830615234374,9.669357299804688,-0.11767578125,0.2157440185546875
1702338844575061000,195.39706103515624,9.68896484375,-0.11767578125,0.2353668212890625
1702338844673785300,195.49578540039062,9.68896484375,-0.11767578125,0.196136474609375
1702338844772540400,195.59454052734375,9.708587646484375,-0.0980682373046875,0.176513671875
1702338844871173000,195.69317309570312,9.708587646484375,-0.058837890625,0.176513671875
1702338844970019600,195.79201953125,9.68896484375,-0.078460693359375,0.137298583984375
1702338845068713500,195.89071337890624,9.747817993164062,-0.0980682373046875,0.11767578125
1702338845483477800,196.30547778320312,9.688980102539062,-0.0392303466796875,0.1569061279296875
1702338845641620000,196.46361987304687,9.688980102539062,-0.0392303466796875,0.1569061279296875
1702338845799762000,196.62176196289062,9.767425537109375,-0.0392303466796875,0.1569061279296875
1702338845957873700,196.77987377929688,9.728195190429688,-0.078460693359375,0.1569061279296875
1702338846116473300,196.93847338867187,9.728195190429688,-0.078460693359375,0.1176910400390625
1702338846274066200,197.09606616210937,9.728195190429688,-0.078460693359375,0.1176910400390625
1702338846432208400,197.25420849609375,9.688980102539062,0,0.1569061279296875
1702338846590350300,197.41235034179687,9.728195190429688,-0.0392303466796875,0.1176910400390625
1702338846748492500,197.57049243164062,9.688980102539062,-0.078460693359375,0.1569061279296875
1702338846906665200,197.72866528320313,9.649749755859375,-0.0392303466796875,0.1569061279296875
1702338847064776700,197.88677661132812,9.728195190429688,-0.078460693359375,0.1569061279296875
1702338847222857700,198.04485766601562,9.649749755859375,-0.0392303466796875,0.1569061279296875
1702338847381030400,198.20303051757813,9.688980102539062,-0.078460693359375,0.1569061279296875
1702338847539142000,198.36114184570312,9.688980102539062,-0.078460693359375,0.196136474609375
1702338847697284000,198.5192841796875,9.728195190429688,-0.078460693359375,0.1569061279296875
1702338847855426000,198.67742602539062,9.728195190429688,-0.078460693359375,0.1569061279296875
1702338848013629200,198.83562915039062,9.688980102539062,-0.078460693359375,0.1569061279296875
1702338848171649300,198.99364916992187,9.728195190429688,-0.078460693359375,0.1569061279296875
1702338848329791200,199.15179125976562,9.688980102539062,-0.078460693359375,0.1569061279296875
1702338848488025000,199.31002514648438,9.688980102539062,-0.078460693359375,0.1569061279296875
1702338848646136600,199.46813647460937,9.728195190429688,-0.078460693359375,0.2353668212890625
1702338848804278500,199.62627856445312,9.649749755859375,-0.078460693359375,0.1569061279296875
1702338848962420700,199.78442065429687,9.728195190429688,-0.078460693359375,0.1569061279296875
1702338849120532200,199.9425322265625,9.728195190429688,0,0.1569061279296875
1702338849278705000,200.10070483398437,9.728195190429688,-0.078460693359375,0.1569061279296875
1702338849436877600,200.25887768554688,9.728195190429688,-0.078460693359375,0.1569061279296875
1702338849595019500,200.41701953125,9.728195190429688,-0.078460693359375,0.196136474609375
1702338849752765000,200.57476489257812,9.728195190429688,-0.078460693359375,0.196136474609375
1702338849911334400,200.73333447265625,9.649749755859375,-0.078460693359375,0.1569061279296875
1702338850069384700,200.891384765625,9.649749755859375,-0.0392303466796875,0.1569061279296875
1702338850227527000,201.04952685546874,9.610519409179688,-0.078460693359375,0.196136474609375
1702338850385669000,201.20766918945313,9.649749755859375,-0.078460693359375,0.1569061279296875
1702338850543841500,201.36584155273437,9.728195190429688,-0.078460693359375,0.1176910400390625
1702338850702014200,201.52401416015624,9.728195190429688,-0.078460693359375,0.1569061279296875
1702338850860156400,201.68215649414063,9.728195190429688,-0.078460693359375,0.1569061279296875
1702338851018328800,201.84032885742187,9.688980102539062,-0.0392303466796875,0.1569061279296875
1702338851176409900,201.99840991210937,9.688980102539062,-0.0392303466796875,0.1569061279296875
1702338851334552000,202.15655200195312,9.728195190429688,-0.078460693359375,0.1176910400390625
1702338851492755200,202.31475512695312,9.728195190429688,-0.078460693359375,0.1569061279296875
1702338851650927900,202.47292797851563,9.728195190429688,-0.078460693359375,0.2353668212890625
1702338851809069800,202.63106982421874,9.728195190429688,-0.078460693359375,0.1569061279296875
1702338851966876200,202.78887622070312,9.649749755859375,0,0.1569061279296875
1702338852125262600,202.9472626953125,9.728195190429688,-0.078460693359375,0.1569061279296875
1702338852283526700,203.10552661132812,9.688980102539062,-0.1176910400390625,0.1569061279296875
1702338852441699300,203.26369921875,9.688980102539062,-0.078460693359375,0.078460693359375
1702338852599841300,203.42184130859374,9.728195190429688,-0.0392303466796875,0.1569061279296875
1702338852757922300,203.57992236328124,9.649749755859375,-0.078460693359375,0.1569061279296875
1702338852916125400,203.73812548828124,9.728195190429688,-0.078460693359375,0.078460693359375
1702338853074267600,203.896267578125,9.728195190429688,-0.078460693359375,0.1569061279296875
1702338853232379100,204.05437915039062,9.728195190429688,-0.078460693359375,0.196136474609375
1702338853390521300,204.21252124023437,9.728195190429688,-0.078460693359375,0.1569061279296875
1702338853548663300,204.37066333007812,9.649749755859375,-0.1176910400390625,0.1569061279296875
1702338853706836000,204.5288359375,9.688980102539062,-0.078460693359375,0.1569061279296875
1702338853864978200,204.68697827148438,9.728195190429688,-0.078460693359375,0.1569061279296875
1702338854023120100,204.8451201171875,9.728195190429688,-0.078460693359375,0.1569061279296875
1702338854181262300,205.00326245117188,9.649749755859375,-0.078460693359375,0.196136474609375
1702338854339373800,205.16137377929687,9.728195190429688,-0.078460693359375,0.1569061279296875
1702338854497564000,205.31956396484375,9.649749755859375,-0.0392303466796875,0.1569061279296875
1702338854655705900,205.47770581054687,9.688980102539062,-0.078460693359375,0.1569061279296875
1702338854813817300,205.6358173828125,9.728195190429688,-0.078460693359375,0.1569061279296875
1702338854971959600,205.79395947265624,9.649749755859375,-0.1176910400390625,0.196136474609375
1702338855130101800,205.95210180664063,9.728195190429688,-0.078460693359375,0.1569061279296875
1702338855288274200,206.11027416992187,9.728195190429688,0,0.1569061279296875
1702338855446446800,206.26844677734374,9.728195190429688,-0.078460693359375,0.196136474609375
1702338855723455000,206.545455078125,9.696823120117188,-0.078460693359375,0.1569061279296875
1702338855822454000,206.6444541015625,9.728195190429688,-0.078460693359375,0.1725921630859375
1702338855921483500,206.7434833984375,9.696823120117188,-0.078460693359375,0.1725921630859375
1702338856020543500,206.84254345703124,9.665435791015625,-0.078460693359375,0.1412200927734375
1702338856119542500,206.94154248046874,9.712509155273438,-0.01568603515625,0.1569061279296875
1702338856218511000,207.04051098632812,9.75958251953125,-0.094146728515625,0.1725921630859375
1702338856752629800,207.57462963867187,9.688980102539062,-0.078460693359375,0.1569061279296875
1702338856910802400,207.73280249023438,9.728195190429688,-0.078460693359375,0.196136474609375
1702338857068974800,207.89097485351562,9.688980102539062,-0.078460693359375,0.1176910400390625
1702338857227086600,208.04908666992188,9.728195190429688,-0.078460693359375,0.1176910400390625
1702338857385259000,208.20725903320312,9.649749755859375,-0.078460693359375,0.1569061279296875
1702338857543401200,208.36540112304687,9.728195190429688,-0.0392303466796875,0.1569061279296875
1702338857701512700,208.5235126953125,9.649749755859375,-0.078460693359375,0.1569061279296875
1702338857859685400,208.68168530273437,9.728195190429688,-0.1176910400390625,0.1569061279296875
1702338858017827600,208.83982763671875,9.728195190429688,-0.078460693359375,0.1569061279296875
1702338858175939000,208.99793896484374,9.728195190429688,-0.078460693359375,0.1569061279296875
1702338858334111700,209.15611181640625,9.649749755859375,-0.078460693359375,0.1569061279296875
1702338858492253700,209.31425366210937,9.688980102539062,-0.078460693359375,0.1569061279296875
1702338858650396000,209.47239599609375,9.728195190429688,-0.078460693359375,0.1569061279296875
1702338858807775000,209.62977490234374,9.728195190429688,-0.078460693359375,0.1569061279296875
1702338858966710500,209.78871044921874,9.728195190429688,-0.0392303466796875,0.1569061279296875
1702338859124883200,209.94688330078125,9.728195190429688,-0.078460693359375,0.1569061279296875
1702338859282964200,210.10496411132812,9.688980102539062,-0.0392303466796875,0.196136474609375
1702338859441167400,210.26316748046875,9.688980102539062,-0.078460693359375,0.1569061279296875
1702338859599309300,210.42130932617187,9.728195190429688,-0.0392303466796875,0.1569061279296875
1702338859757482000,210.57948193359374,9.728195190429688,-0.078460693359375,0.1569061279296875
1702338859914830600,210.73683056640624,9.688980102539062,-0.078460693359375,0.078460693359375
1702338860073796600,210.89579663085937,9.688980102539062,-0.078460693359375,0.1569061279296875
1702338860231878000,211.0538779296875,9.728195190429688,-0.078460693359375,0.1569061279296875
1702338860390111500,211.21211157226563,9.688980102539062,-0.078460693359375,0.1569061279296875
1702338860548284000,211.37028393554687,9.728195190429688,-0.078460693359375,0.078460693359375
1702338860706426000,211.52842602539062,9.649749755859375,-0.078460693359375,0.1569061279296875
1702338860864598800,211.68659887695313,9.728195190429688,-0.1176910400390625,0.15692138671875
1702338861022008300,211.84400830078124,9.728195190429688,-0.078460693359375,0.1176910400390625
1702338861180944000,212.00294384765624,9.728195190429688,-0.078460693359375,0.196136474609375
1702338861339116500,212.16111645507812,9.649749755859375,-0.078460693359375,0.1569061279296875
1702338861497289200,212.31928930664063,9.688980102539062,-0.0392303466796875,0.1569061279296875
1702338861655461600,212.47746166992187,9.728195190429688,-0.078460693359375,0.1569061279296875
1702338861813634300,212.63563427734374,9.688980102539062,-0.078460693359375,0.196136474609375
1702338861971807000,212.79380688476562,9.728195190429688,-0.078460693359375,0.1569061279296875
1702338862129491200,212.9514912109375,9.728195190429688,-0.078460693359375,0.1569061279296875
1702338862288091100,213.11009106445312,9.688980102539062,-0.078460693359375,0.1569061279296875
1702338862446263800,213.26826391601563,9.728195190429688,-0.078460693359375,0.1569061279296875
1702338862604467000,213.42646704101563,9.728195190429688,-0.1176910400390625,0.2353668212890625
1702338862762639600,213.5846396484375,9.728195190429688,-0.078460693359375,0.1176910400390625
1702338862920812000,213.74281201171874,9.688980102539062,-0.1176910400390625,0.1569061279296875
1702338863078954200,213.90095434570313,9.688980102539062,-0.078460693359375,0.1569061279296875
1702338863236943600,214.05894360351562,9.688980102539062,-0.078460693359375,0.2353668212890625
1702338863395268900,214.21726879882812,9.728195190429688,-0.078460693359375,0.1569061279296875
1702338863553411000,214.3754111328125,9.649749755859375,-0.0392303466796875,0.1569061279296875
1702338863711644700,214.53364477539063,9.728195190429688,-0.0392303466796875,0.1569061279296875
1702338863869756200,214.69175610351562,9.728195190429688,-0.078460693359375,0.2353668212890625
1702338864027959300,214.84995922851562,9.728195190429688,-0.078460693359375,0.1569061279296875
1702338864186101500,215.0081015625,9.649749755859375,-0.078460693359375,0.196136474609375
1702338864344732000,215.16673193359375,9.649749755859375,-0.078460693359375,0.1569061279296875
1702338864502459400,215.32445947265626,9.688980102539062,-0.078460693359375,0.078460693359375
1702338864660601300,215.48260131835937,9.688980102539062,-0.078460693359375,0.1569061279296875
1702338864818743600,215.64074365234376,9.688980102539062,-0.078460693359375,0.1176910400390625
1702338864976885500,215.79888549804687,9.728195190429688,-0.1569061279296875,0.1569061279296875
1702338865135058200,215.95705810546875,9.728195190429688,-0.078460693359375,0.1569061279296875
1702338865293169700,216.11516967773437,9.688980102539062,-0.078460693359375,0.196136474609375
1702338865451342300,216.27334228515625,9.728195190429688,-0.078460693359375,0.1569061279296875
1702338865609484500,216.43148461914063,9.728195190429688,-0.078460693359375,0.1569061279296875
1702338865767626500,216.58962646484375,9.728195190429688,-0.078460693359375,0.1569061279296875
1702338865925829600,216.74782958984375,9.728195190429688,-0.078460693359375,0.1176910400390625
1702338866083971800,216.90597192382813,9.728195190429688,-0.078460693359375,0.1569061279296875
1702338866242113800,217.06411376953125,9.728195190429688,-0.1176910400390625,0.1569061279296875
1702338866400286500,217.22228637695312,9.688980102539062,-0.078460693359375,0.078460693359375
1702338866558428700,217.3804287109375,9.688980102539062,0,0.1176910400390625
1702338866716570600,217.53857055664062,9.688980102539062,-0.078460693359375,0.1569061279296875
1702338867072802300,217.89480224609375,9.712509155273438,-0.094146728515625,0.1725921630859375
1702338867171526700,217.99352661132812,9.681121826171875,-0.062774658203125,0.18829345703125
1702338867269945900,218.09194580078125,9.681121826171875,-0.0313873291015625,0.1569061279296875
1702338867368945000,218.19094482421875,9.712509155273438,-0.078460693359375,0.2039794921875
1702338867468005000,218.29000512695313,9.712509155273438,-0.062774658203125,0.1569061279296875
1702338867567309300,218.38930932617188,9.696823120117188,-0.078460693359375,0.1725921630859375
1702338868101916200,218.92391625976563,9.728195190429688,-0.078460693359375,0.1176910400390625
1702338868260027600,219.08202758789062,9.728195190429688,0,0.078460693359375
1702338868418230800,219.24023071289062,9.728195190429688,-0.078460693359375,0.1569061279296875
1702338868575549000,219.397548828125,9.728195190429688,-0.078460693359375,0.1569061279296875
1702338868734515000,219.55651489257812,9.649749755859375,-0.078460693359375,0.1569061279296875
1702338868892626700,219.71462670898438,9.649749755859375,-0.078460693359375,0.1569061279296875
1702338869050799000,219.87279907226562,9.728195190429688,-0.078460693359375,0.1569061279296875
1702338869209460000,220.0314599609375,9.728195190429688,-0.078460693359375,0.196136474609375
1702338869367114000,220.18911401367188,9.688980102539062,-0.0392303466796875,0.1569061279296875
1702338869525164500,220.34716455078126,9.728195190429688,-0.078460693359375,0.1569061279296875
1702338869682635000,220.50463500976562,9.688980102539062,-0.078460693359375,0.1569061279296875
1702338869841540000,220.6635400390625,9.728195190429688,-0.078460693359375,0.196136474609375
1702338869999743200,220.8217431640625,9.728195190429688,-0.078460693359375,0.1569061279296875
