time,seconds_elapsed,z,y,x
1702338649560029200,0.382029296875,0,0,0
1702338649655518700,0.477518798828125,0,0,0
1702338649761964000,0.583964111328125,0.29811859130859375,-0.058837890625,-0.20005035400390625
1702338649856965000,0.678965087890625,-0.09937000274658203,-0.28504443168640137,0.3687286376953125
1702338649962800000,0.784800048828125,-1.3954849243164062,0.2539939880371094,0.9767417907714844
1702338650058350600,0.8803505859375,0.510594367980957,-0.5812098979949951,0.9362055063247681
1702338650164216000,0.986216064453125,-0.7553377151489258,-0.14165425300598145,0.3730891942977905
1702338650259766500,1.0817666015625,-0.4852476119995117,0.8077752590179443,-1.1137412786483765
1702338650366425600,1.188425537109375,-0.04368305206298828,0.8784825801849365,-1.0903029441833496
1702338650566926000,1.388926025390625,-0.2512807846069336,0.9343752861022949,-1.2386006116867065
1702338650663483600,1.485483642578125,-0.5074324607849121,0.39174556732177734,-0.5792536735534668
1702338650768006400,1.59000634765625,0.08274221420288086,-0.7770342826843262,-0.48293018341064453
1702338650864014600,1.6860146484375,-0.27957582473754883,-0.9782788753509521,-0.2278066873550415
1702338650969391900,1.791391845703125,0.791663646697998,-0.9764657020568848,-0.9756319522857666
1702338651065766400,1.887766357421875,1.4247589111328125,-1.3492090702056885,-0.7811789512634277
1702338651171601400,1.993601318359375,0.452972412109375,-1.534940242767334,-0.2906529903411865
1702338651267091000,2.089091064453125,0.10845947265625,-1.1618942022323608,-0.5729596614837646
1702338651373200400,2.195200439453125,-0.5134687423706055,-0.6333811283111572,-0.4342801570892334
1702338651468629000,2.29062890625,0.5102062225341797,-0.6471482515335083,-0.041086673736572266
1702338651574708000,2.3967080078125,-0.054749488830566406,-0.30852770805358887,0.05368399620056152
1702338651670045000,2.492044921875,0.3714590072631836,-0.2893643379211426,-0.257108211517334
1702338651775880000,2.5978798828125,-0.5028896331787109,0.09474915266036987,-0.3387739658355713
1702338651871705000,2.693705078125,-0.3771095275878906,-0.3134106397628784,0.025208711624145508
1702338651977112800,2.79911279296875,0.13302326202392578,-0.26386189460754395,-0.33885622024536133
1702338652072541200,2.894541259765625,-0.8266115188598633,-0.0869898796081543,-0.9058256149291992
1702338652178223600,3.0002236328125,-0.8266115188598633,-0.0869898796081543,-0.9058256149291992
1702338653789169400,4.61116943359375,0.023522377014160156,0.0017733946442604065,0.03734849393367767
1702338653885605000,4.707605224609375,0.01568126678466797,0.0011822618544101715,0.024898990988731384
1702338653990829600,4.81282958984375,-0.010470390319824219,0.02171305939555168,0.037524208426475525
1702338654087021000,4.90902099609375,-0.027894973754882812,-0.037831757217645645,-0.016833633184432983
1702338654192245800,5.014245849609375,0.023242950439453125,0.006161071360111237,-0.011222422122955322
1702338654288437000,5.11043701171875,0.02595233917236328,0.014574909582734108,-0.017938971519470215
1702338654393661700,5.21566162109375,0.006844520568847656,-0.0007509235292673111,0.008955404162406921
1702338654489822500,5.311822509765625,-0.01636219024658203,-0.0005006156861782074,-0.004487082362174988
1702338654595108400,5.4171083984375,-0.01636219024658203,-0.0005006156861782074,-0.004487082362174988
1702338654691177500,5.513177490234375,-0.01636219024658203,-0.0005006156861782074,-0.004487082362174988
1702338654796493800,5.618493896484375,-0.01636219024658203,-0.0005006156861782074,-0.004487082362174988
1702338654892654600,5.714654541015625,0.04662799835205078,-0.0055624209344387054,-0.002991393208503723
1702338654997940200,5.819940185546875,0.004931449890136719,-0.029861845076084137,0.024159297347068787
1702338655094101200,5.916101318359375,-0.04900932312011719,0.03239923343062401,0.01610618829727173
1702338655199966700,6.021966796875,0.02179718017578125,0.005681805312633514,-0.0364207923412323
1702338655295547600,6.117547607421875,0.014531135559082031,-0.022365693002939224,0.0018628686666488647
1702338655401627000,6.223626953125,-0.016455650329589844,0.037396665662527084,0.0012419074773788452
1702338655602829000,6.4248291015625,0.006743431091308594,0.011080493219196796,0.009082436561584473
1702338655698379800,6.5203798828125,0.0044956207275390625,-0.01876656897366047,0.0060549527406692505
1702338655804458800,6.626458740234375,-0.023146629333496094,-0.03866460919380188,0.004036635160446167
1702338655899795700,6.721795654296875,-0.0015697479248046875,0.0002514384686946869,0.03666546940803528
1702338656005875000,6.827875,-0.0010461807250976562,-0.02598593756556511,0.024443641304969788
1702338656101303300,6.92330322265625,-0.02685070037841797,0.008829604834318161,-0.009857803583145142
1702338656206558500,7.028558349609375,-0.017900466918945312,0.03203996643424034,-0.006571874022483826
1702338656302597000,7.12459716796875,-0.01667308807373047,-0.03806714341044426,-0.0029208362102508545
1702338656408004900,7.2300048828125,0.015038490295410156,0.0007754676043987274,-0.028100788593292236
1702338656504013300,7.326013427734375,0.03616905212402344,0.0005169771611690521,-0.018733859062194824
1702338656609756700,7.431756591796875,-0.0013532638549804688,0.035101186484098434,-0.02576187252998352
1702338657414532600,8.23653271484375,-0.035506248474121094,0.03492289409041405,-0.006647437810897827
1702338657511059700,8.333059814453126,-0.035506248474121094,0.03492289409041405,-0.006647437810897827
1702338657616223200,8.43822314453125,0.028626441955566406,0.023281928151845932,-0.004431620240211487
1702338657712506000,8.534506103515625,0.012722969055175781,0.010347523726522923,-0.0019696056842803955
1702338658623150800,9.44515087890625,-0.021256446838378906,-0.03265415504574776,-0.012292340397834778
1702338658719586300,9.54158642578125,-0.014170646667480469,0.030537690967321396,-0.008194893598556519
1702338658824811000,9.64681103515625,-0.032451629638671875,0.03100801631808281,0.022511392831802368
1702338658920971800,9.7429716796875,-0.02163410186767578,0.020672010257840157,-0.01114596426486969
1702338659026104800,9.848104736328125,0.03787422180175781,0.01378133986145258,-0.00743064284324646
1702338659122418400,9.94441845703125,0.025249481201171875,0.009187559597194195,-0.004953756928443909
1702338659227643000,10.049642822265625,0.011221885681152344,0.0040833596140146255,-0.002201661467552185
1702338659525219800,10.3472197265625,0.0011510848999023438,0.005703861825168133,0.0407162606716156
1702338659630475000,10.45247509765625,0.0011510848999023438,0.005703861825168133,0.0407162606716156
1702338659726635800,10.5486357421875,0.0007677078247070312,0.003802574472501874,0.0009905993938446045
1702338659831891000,10.653890869140625,0.0005121231079101562,0.002535049570724368,0.0006603896617889404
1702338659928082400,10.75008251953125,-0.008482933044433594,-0.05118044093251228,0.026447057723999023
1702338660033215500,10.855215576171876,-0.03180885314941406,-0.007966730743646622,-0.008522197604179382
1702338660129498400,10.951498291015625,0.031090736389160156,-0.03146471828222275,-0.005681470036506653
1702338660234753500,11.05675341796875,-0.005415916442871094,0.005177084356546402,0.022365912795066833
1702338660330914300,11.152914306640625,0.023736000061035156,0.01973663456737995,0.01865825057029724
1702338660436169500,11.25816943359375,-0.010319709777832031,-0.012995807453989983,-0.039868295192718506
1702338660532361000,11.35436083984375,-0.0068798065185546875,-0.008663872256875038,-0.0004253089427947998
1702338660638745300,11.460745361328126,0.06667804718017578,-0.030004173517227173,-0.03506045043468475
1702338660839856000,11.661856201171876,-0.005236625671386719,0.00410052016377449,-0.015582427382469177
1702338660935193000,11.757193115234376,-0.0034914016723632812,0.028887243941426277,-0.010388284921646118
1702338661041394200,11.863394287109376,-0.010270118713378906,-0.013314789161086082,0.012818694114685059
1702338661241955600,12.06395556640625,-0.006846427917480469,-0.008876526728272438,-0.017607763409614563
1702338661337902800,12.15990283203125,-0.006846427917480469,-0.008876526728272438,-0.017607763409614563
1702338661444134700,12.266134765625,-0.006846427917480469,-0.008876526728272438,-0.017607763409614563
1702338661539441200,12.361441162109376,-0.015021324157714844,-0.032071247696876526,-0.011738508939743042
1702338662450055200,13.27205517578125,0.019743919372558594,-0.009797640144824982,0.014187395572662354
1702338662546521000,13.36852099609375,0.019743919372558594,-0.009797640144824982,0.014187395572662354
1702338662651776300,13.4737763671875,0.013162612915039062,-0.006531760096549988,0.009458258748054504
1702338662747906600,13.569906494140625,-0.046446800231933594,-0.011620856821537018,-0.013232037425041199
1702338662853131300,13.67513134765625,0.021332740783691406,-0.007747240364551544,-0.008821353316307068
1702338662949292000,13.7712919921875,-0.03807544708251953,0.020988736301660538,-0.00588090717792511
1702338663054547200,13.876547119140625,-0.016922950744628906,0.00932832807302475,0.014821961522102356
1702338663150708200,13.972708251953126,-0.011281967163085938,-0.019934680312871933,0.00988130271434784
1702338663255963100,14.077963134765625,-0.007521629333496094,-0.013289786875247955,0.00658753514289856
1702338663352124200,14.174124267578126,0.021139144897460938,0.04344727098941803,0.030545249581336975
1702338663457409800,14.279409912109376,0.026823997497558594,0.0018741898238658905,-0.021295756101608276
1702338663553570600,14.375570556640625,-0.008260726928710938,0.0012494586408138275,0.011956393718719482
1702338663658825700,14.48082568359375,-0.005507469177246094,-0.025320593267679214,0.007970929145812988
1702338663754986800,14.57698681640625,-0.0036716461181640625,0.009273167699575424,-0.020839616656303406
1702338663860211200,14.682211181640625,0.01579761505126953,0.030274972319602966,-0.009262055158615112
1702338663956402700,14.778402587890625,-0.04176521301269531,-0.03212381526827812,-0.00617469847202301
1702338664061657900,14.883657958984376,-0.027843475341796875,-0.02141587808728218,-0.004116460680961609
1702338664157696800,14.97969677734375,-0.0036535263061523438,-0.009518168866634369,-0.0018295347690582275
1702338664263043300,15.085043212890625,0.02370738983154297,0.04596168175339699,-0.0012196898460388184
1702338664359234800,15.18123486328125,-0.010338783264160156,0.0044875554740428925,-0.0008131265640258789
1702338664465344300,15.28734423828125,-0.006892204284667969,0.029145266860723495,0.025611475110054016
1702338664560681200,15.38268115234375,-0.011777877807617188,-0.02191796526312828,-0.006052836775779724
1702338664666791000,15.488791015625,-0.007851600646972656,0.011541586369276047,0.022118330001831055
1702338664762066700,15.584066650390625,0.02090930938720703,-0.018459174782037735,0.014745548367500305
1702338664868115500,15.690115478515626,-0.04300403594970703,0.009231630712747574,0.006553560495376587
1702338664963483000,15.78548291015625,-0.0025157928466796875,0.03230798617005348,0.004369035363197327
1702338665069653500,15.891653564453126,0.024466514587402344,0.02153865620493889,0.00291268527507782
1702338665164929300,15.98692919921875,-0.009832382202148438,0.01435910351574421,-0.024211779236793518
1702338665269940200,16.091940185546875,0.03049182891845703,-0.03720745071768761,-0.02818971872329712
1702338665366497800,16.188497802734375,0.02032756805419922,-0.024804968386888504,0.007350251078605652
1702338665472455000,16.294454833984375,0.013551712036132812,-0.016536645591259003,0.03105372190475464
1702338665567852800,16.389852783203125,0.009034156799316406,0.015129134058952332,-0.005451083183288574
1702338665673779500,16.495779541015626,0.0040149688720703125,0.006724059581756592,-0.002422705292701721
1702338665769177300,16.59117724609375,-0.049620628356933594,0.030636269599199295,-0.02775852382183075
1702338665875134500,16.697134521484376,-0.059233665466308594,-0.00572938472032547,0.03379127383232117
1702338665972424400,16.794424560546876,-0.059233665466308594,-0.00572938472032547,0.03379127383232117
1702338666076550400,16.89855029296875,-0.059233665466308594,-0.00572938472032547,0.03379127383232117
1702338666171978800,16.993978759765625,-0.059233665466308594,-0.00572938472032547,0.03379127383232117
1702338666277386500,17.099386474609375,0.03896141052246094,-0.00904826819896698,0.02775619924068451
1702338666373333800,17.195333740234375,-0.015865325927734375,-0.006032180041074753,0.008046776056289673
1702338666479413000,17.3014130859375,-0.010577201843261719,0.006435904651880264,0.026289403438568115
1702338666574902500,17.396902587890626,0.013873100280761719,0.01475813239812851,-0.013866141438484192
1702338667485449700,18.30744970703125,-0.0021390914916992188,-0.004340998828411102,-0.01391342282295227
1702338667581885400,18.403885498046876,0.009031295776367188,-0.023818884044885635,-0.009275615215301514
1702338667686804700,18.5088046875,-0.014904022216796875,0.025970514863729477,0.03566601872444153
1702338667783301400,18.60530126953125,-0.014904022216796875,0.025970514863729477,0.03566601872444153
1702338667888556500,18.710556640625,-0.014904022216796875,0.025970514863729477,0.03566601872444153
1702338667984686800,18.806686767578125,-0.014904022216796875,0.025970514863729477,0.03566601872444153
1702338668089942000,18.91194189453125,-0.014904022216796875,0.025970514863729477,0.03566601872444153
1702338668186835200,19.008835205078125,0.0055866241455078125,-0.02332896739244461,-0.010305389761924744
1702338668291388400,19.113388427734375,0.029868125915527344,-0.015552647411823273,-0.006870254874229431
1702338668387549400,19.209549560546876,-0.0062313079833984375,-0.010368429124355316,-0.004580169916152954
1702338668492774000,19.31477392578125,0.021988868713378906,-0.0069122835993766785,0.0492536723613739
1702338668588965400,19.41096533203125,-0.025092124938964844,-0.02050783857703209,-0.021698758006095886
1702338668693854500,19.5158544921875,0.009425163269042969,0.03863523527979851,-0.01446583867073059
1702338668790350800,19.612350830078125,0.009425163269042969,0.03863523527979851,-0.01446583867073059
1702338668895606000,19.71760595703125,0.009425163269042969,0.03863523527979851,-0.01446583867073059
1702338668991767000,19.81376708984375,0.009425163269042969,0.03863523527979851,-0.01446583867073059
1702338669097022000,19.91902197265625,0.011511802673339844,-0.005625419318675995,-0.009643897414207458
1702338669193183000,20.015182861328125,0.01813220977783203,-0.0037502795457839966,0.004028096795082092
1702338669298590700,20.1205908203125,0.012087821960449219,0.01842470094561577,-0.018229320645332336
1702338669394690600,20.216690673828126,0.03944110870361328,-0.00864175334572792,0.01922936737537384
1702338669500617000,20.322616943359375,-0.005087852478027344,0.025621073320508003,0.02327693998813629
1702338669596076000,20.418075927734375,-0.024316787719726562,-0.0038441698998212814,-0.005406931042671204
1702338669702155000,20.524155029296875,-0.024316787719726562,-0.0038441698998212814,-0.005406931042671204
1702338669797522400,20.6195224609375,-0.024316787719726562,-0.0038441698998212814,-0.005406931042671204
1702338669903479600,20.7254794921875,-0.024316787719726562,-0.0038441698998212814,-0.005406931042671204
1702338669998908200,20.820908203125,-0.037125587463378906,-0.007791459560394287,-0.040205374360084534
1702338670104804000,20.92680419921875,-0.024750709533691406,0.02095925807952881,-0.0006601959466934204
1702338670200293600,21.022293701171876,-0.016500473022460938,0.013972838409245014,0.025713428854942322
1702338670305670700,21.127670654296875,0.04496288299560547,0.006210150197148323,-0.014725372195243835
1702338670401740000,21.223739990234375,0.056128501892089844,0.030293665826320648,-0.009816914796829224
1702338670507819300,21.3298193359375,0.03741931915283203,-0.005957787856459618,-0.03268800675868988
1702338670602820400,21.4248203125,-0.0012073516845703125,-0.003971858415752649,0.004351392388343811
1702338670709265700,21.531265625,-0.0012073516845703125,-0.003971858415752649,0.004351392388343811
1702338670804572200,21.626572265625,-0.0012073516845703125,-0.003971858415752649,0.004351392388343811
1702338670910529000,21.732529052734375,-0.000804901123046875,-0.03403014689683914,0.002900928258895874
1702338671005835500,21.82783544921875,-0.01099395751953125,-0.001761878840625286,0.033316195011138916
1702338671112067300,21.9340673828125,-0.007328987121582031,-0.01164211519062519,0.0012859106063842773
1702338671207373600,22.02937353515625,-0.03626823425292969,-0.018218766897916794,0.01132480800151825
1702338671312750800,22.134750732421875,-0.003253936767578125,-0.0016884878277778625,-0.002917662262916565
1702338671408850700,22.2308505859375,-0.0021696090698242188,-0.001125657930970192,0.018979772925376892
1702338671515509500,22.337509521484375,-0.0021696090698242188,-0.001125657930970192,0.018979772925376892
1702338671715827000,22.537826904296875,-0.0021696090698242188,-0.001125657930970192,0.018979772925376892
1702338671811652000,22.633652099609375,-0.0021696090698242188,-0.001125657930970192,0.018979772925376892
1702338671917029400,22.739029296875,0.02169322967529297,-0.02142178639769554,-0.021203890442848206
1702338672013037600,22.83503759765625,0.014462471008300781,0.03802593797445297,-0.014135926961898804
1702338672119116800,22.94111669921875,-0.042654991149902344,0.025350624695420265,0.016729608178138733
1702338672214453800,23.036453857421876,0.02385997772216797,-0.00925314798951149,0.037306636571884155
1702338672319830800,23.141830810546875,-0.032978057861328125,-0.004112508147954941,-0.027008548378944397
1702338672415900200,23.237900146484375,0.03031158447265625,-0.028895236551761627,0.008147865533828735
1702338672522009900,23.344009765625,0.02020740509033203,0.0068900734186172485,0.03158546984195709
1702338672617682400,23.439682373046875,0.00026988983154296875,-0.014373451471328735,-0.02083343267440796
1702338672723303700,23.5453037109375,0.00018024444580078125,-0.00958230346441269,-0.013888955116271973
1702338672818732300,23.640732177734375,0.02626323699951172,-0.0063882023096084595,-0.00925929844379425
1702338672924811300,23.746811279296875,0.017508506774902344,0.02189476042985916,-0.03231625258922577
1702338673020117800,23.84211767578125,-0.035800933837890625,-0.016422558575868607,0.029219716787338257
1702338673126227500,23.9482275390625,0.02842998504638672,-0.01094837486743927,-0.006673753261566162
1702338673221533700,24.04353369140625,-0.007189750671386719,0.04500821232795715,0.02170439064502716
1702338673326941400,24.14894140625,-0.0047931671142578125,0.030005473643541336,0.04062315821647644
1702338673422980400,24.24498046875,0.006587028503417969,-0.03025350719690323,0.018054723739624023
1702338673529059300,24.351059326171875,0.030534744262695312,0.005984559655189514,-0.040270641446113586
1702338673624396300,24.446396240234375,-0.031940460205078125,0.003989707678556442,-0.026847094297409058
1702338673730139600,24.5521396484375,0.0032396316528320312,0.010491058230400085,0.040375083684921265
1702338674132514000,24.95451416015625,0.03238201141357422,0.0071934424340724945,-0.005015388131141663
1702338674228614000,25.05061376953125,-0.004555702209472656,-0.021357934921979904,-0.0033435970544815063
1702338674333930000,25.155929931640625,-0.0030374526977539062,0.011914942413568497,-0.002229064702987671
1702338674430091000,25.252091064453126,-0.0020246505737304688,0.007943294942378998,-0.0014860481023788452
1702338674536139500,25.358139404296875,0.025243759155273438,0.02096606232225895,-0.0006604641675949097
1702338674631507000,25.4535068359375,-0.035468101501464844,0.013977374881505966,0.025713250041007996
1702338674737464000,25.559464111328126,0.0025081634521484375,0.009318250231444836,0.0171421617269516
1702338674832526300,25.6545263671875,0.009832382202148438,0.012859299778938293,0.016336590051651
1702338674938971600,25.7609716796875,0.006554603576660156,-0.017580697312951088,0.010891050100326538
1702338675034308400,25.856308349609375,-0.021783828735351562,0.014433098956942558,-0.018892869353294373
1702338675140296000,25.9622958984375,0.037774085998535156,0.009622066281735897,-0.012595251202583313
1702338675235693800,26.05769384765625,0.025503158569335938,-0.05674850940704346,-0.005597889423370361
1702338675341101600,26.1631015625,0.017002105712890625,-0.011678777635097504,0.02242162823677063
1702338675437140500,26.259140380859375,0.011334419250488281,0.018367711454629898,0.041101306676864624
1702338675543250200,26.365250244140626,0.007555961608886719,0.038398705422878265,0.001247301697731018
1702338675638434300,26.460434326171875,-0.048938751220703125,-0.00036961957812309265,0.03542576730251312
1702338675744605200,26.566605224609376,-0.006472587585449219,0.025907151401042938,0.023617178201675415
1702338675839972600,26.66197265625,-0.004315376281738281,-0.008882129564881325,-0.03656233847141266
1702338675945685500,26.767685546875,-0.0019178390502929688,-0.003947611898183823,0.001185774803161621
1702338676041388500,26.863388427734375,0.024865150451660156,-0.028785306960344315,-0.025363042950630188
1702338676147406600,26.969406494140625,0.016576766967773438,-0.01919020339846611,-0.016908690333366394
1702338676242774000,27.06477392578125,0.011051177978515625,-0.012793466448783875,-0.011272460222244263
1702338676348151300,27.1701513671875,-0.0735321044921875,-0.04055740684270859,0.021143585443496704
1702338676444220700,27.266220703125,0.42169189453125,-0.027038268744945526,-0.0382012277841568
1702338676550299600,27.372299560546875,-0.00653076171875,0.060435179620981216,-0.025467485189437866
1702338676645636600,27.46763671875,-0.08281421661376953,0.040290120989084244,0.009165063500404358
1702338676751715600,27.573715576171875,-0.010645866394042969,-0.03440040722489357,-0.022070035338401794
1702338676847052500,27.669052490234375,-0.0070972442626953125,-0.04908716678619385,-0.014713361859321594
1702338676953131800,27.7751318359375,-0.5016088485717773,0.1241966113448143,-0.14057672023773193
1702338677048132900,27.8701328125,0.09959983825683594,-0.023262200877070427,0.06827910244464874
1702338677154669800,27.976669921875,0.1186971664428711,-0.015508133918046951,0.0716729611158371
1702338677249854200,28.071854248046876,0.1186971664428711,-0.015508133918046951,0.0716729611158371
1702338677355274000,28.17727392578125,0.1186971664428711,-0.015508133918046951,0.0716729611158371
1702338677451221200,28.27322119140625,0.1186971664428711,-0.015508133918046951,0.0716729611158371
1702338677557422300,28.37942236328125,0.1209707260131836,0.0053574517369270325,0.0059321969747543335
1702338677652728800,28.474728759765625,0.059721946716308594,-0.017353251576423645,0.014422327280044556
1702338677758807800,28.580807861328125,0.05028247833251953,0.009356051683425903,-0.0008526444435119629
1702338677854144800,28.676144775390625,0.0021390914916992188,0.016694724559783936,-0.011025786399841309
1702338677960224000,28.78222412109375,0.0014257431030273438,-0.030719954520463943,0.003106832504272461
1702338678055560700,28.877560791015625,0.021864891052246094,0.00044491514563560486,0.012538745999336243
1702338678161640000,28.983639892578125,0.045958518981933594,0.00029661133885383606,-0.012565717101097107
1702338678256946200,29.0789462890625,0.04109668731689453,0.010665269568562508,-0.00837714970111847
1702338678362354000,29.18435400390625,-0.02489948272705078,0.0071101803332567215,0.0048725903034210205
1702338678458392800,29.280392822265625,0.004324913024902344,-0.016184765845537186,0.04509815573692322
1702338678563739400,29.385739501953125,-0.007584571838378906,-0.0003324877470731735,0.009140551090240479
1702338678659747800,29.481747802734375,0.015868186950683594,0.020703228190541267,-0.035745903849601746
1702338678765888000,29.587887939453125,-0.010346412658691406,-0.01758009009063244,0.018008992075920105
1702338678861438500,29.6834384765625,0.014027595520019531,-0.03264494612812996,0.0015486329793930054
1702338678966571500,29.788571533203125,0.01980876922607422,-0.0008384101092815399,0.011489778757095337
1702338679062641000,29.884640869140625,0.0027484893798828125,0.030823301523923874,-0.034179747104644775
1702338679168750600,29.99075048828125,0.0027484893798828125,0.030823301523923874,-0.034179747104644775
1702338679369434000,30.19143408203125,0.0027484893798828125,0.030823301523923874,-0.034179747104644775
1702338679465473000,30.28747314453125,-0.013854026794433594,0.04670243337750435,0.013824418187141418
1702338679571552000,30.393552001953125,-0.03538990020751953,0.0049813902005553246,0.009216278791427612
1702338679666889000,30.488888916015625,-0.01572895050048828,-0.05009317770600319,0.012813970446586609
1702338679772968000,30.594968017578125,-0.010485649108886719,-0.03339545056223869,0.008542641997337341
1702338679868274400,30.6902744140625,0.04530620574951172,0.0038899295032024384,0.03184865415096283
1702338679973743000,30.7957431640625,0.030203819274902344,0.0025932863354682922,0.021232426166534424
1702338680069720800,30.891720947265625,0.020135879516601562,0.0017288587987422943,0.014154940843582153
1702338680175220200,30.99722021484375,0.020135879516601562,0.0017288587987422943,0.014154940843582153
1702338680271106600,31.0931064453125,0.020135879516601562,0.0017288587987422943,0.014154940843582153
1702338680376483600,31.198483642578125,0.0029668807983398438,0.02730613574385643,-0.032413139939308167
1702338680472797200,31.294797119140625,-0.008479118347167969,0.007746733725070953,-0.011141225695610046
1702338680578662700,31.40066259765625,-0.005652427673339844,-0.005303040146827698,-0.028352364897727966
1702338680673969000,31.495968994140625,0.038071632385253906,-0.003535360097885132,0.022948190569877625
1702338680780048100,31.602048095703125,0.004456520080566406,-0.0023569073528051376,-0.016093626618385315
1702338680875415600,31.69741552734375,-0.017943382263183594,-0.02249615639448166,-0.010729089379310608
1702338680981494500,31.80349462890625,-0.017943382263183594,-0.02249615639448166,-0.010729089379310608
1702338681076801000,31.898801025390625,-0.017943382263183594,-0.02249615639448166,-0.010729089379310608
1702338681182178300,32.00417822265625,-0.017943382263183594,-0.02249615639448166,-0.010729089379310608
1702338681278186500,32.1001865234375,-0.017943382263183594,-0.02249615639448166,-0.010729089379310608
1702338681384326700,32.20632666015625,0.040836334228515625,0.026619412004947662,-0.0030222088098526
1702338681479633200,32.301633056640625,0.0010709762573242188,-0.034560855478048325,-0.028168365359306335
1702338681585681700,32.407681640625,-0.025429725646972656,-0.023040570318698883,-0.018778905272483826
1702338681681049000,32.503049072265625,0.014841079711914062,0.015913309529423714,-0.008346185088157654
1702338681787128000,32.609128173828125,-0.016249656677246094,0.010608872398734093,-0.0055641233921051025
1702338681882495500,32.70449560546875,0.04146385192871094,0.007072581443935633,-0.0037094205617904663
1702338681988544300,32.810544189453125,0.04146385192871094,0.007072581443935633,-0.0037094205617904663
1702338682083881200,32.905881103515625,0.04146385192871094,0.007072581443935633,-0.0037094205617904663
1702338682189258200,33.01125830078125,0.04146385192871094,0.007072581443935633,-0.0037094205617904663
1702338682285266700,33.1072666015625,0.0014886856079101562,-0.026667188853025436,-0.0024729520082473755
1702338682391406800,33.21340673828125,0.0009927749633789062,-0.007320769131183624,-0.012105986475944519
1702338682486713000,33.308713134765625,-0.02025318145751953,0.0160443726927042,0.023311585187911987
1702338682592792300,33.414792236328125,-0.03442668914794922,-0.020685993134975433,-0.015841186046600342
1702338682688129300,33.51012939453125,-0.022951126098632812,-0.013790663331747055,0.020821452140808105
1702338682794177800,33.616177734375,-0.004843711853027344,-0.009193774312734604,0.01388096809387207
1702338682889545200,33.711545166015625,-0.004843711853027344,-0.009193774312734604,0.01388096809387207
1702338682995624200,33.817624267578125,-0.004843711853027344,-0.009193774312734604,0.01388096809387207
1702338683090991600,33.91299169921875,-0.004843711853027344,-0.009193774312734604,0.01388096809387207
1702338683196308000,34.018307861328125,-0.02414417266845703,-0.0009005032479763031,-0.011670902371406555
1702338683292346600,34.1143466796875,0.036200523376464844,-0.0006003342568874359,-0.007780596613883972
1702338683398364700,34.22036474609375,0.024804115295410156,0.017168894410133362,-0.012175902724266052
1702338683493823700,34.31582373046875,0.01653575897216797,-0.014707634225487709,-0.008117273449897766
1702338683599872300,34.421872314453125,-0.015119552612304688,0.016348475590348244,-0.005411520600318909
1702338683801288400,34.623288330078125,-0.04225730895996094,0.022279702126979828,-0.0016034096479415894
1702338683896656000,34.71865576171875,-0.002017974853515625,0.041006699204444885,0.051238179206848145
1702338684002002400,34.82400244140625,-0.0013456344604492188,-0.024969330057501793,0.03415878117084503
1702338684098163500,34.92016357421875,0.008123397827148438,-0.028533190488815308,-0.019689738750457764
1702338684203418400,35.02541845703125,0.005415916442871094,0.033285003155469894,-0.013126492500305176
1702338684299426800,35.1214267578125,0.029753684997558594,-0.0039635635912418365,0.04355612397193909
1702338684405567000,35.22756689453125,0.019835472106933594,0.023511188104748726,0.0028838515281677246
1702338684500812300,35.322812255859375,0.008815765380859375,-0.024422001093626022,-0.016154006123542786
1702338684606830300,35.428830322265625,0.005877494812011719,0.009872231632471085,-0.01076933741569519
1702338684702289400,35.524289306640625,-0.07453250885009766,0.032735053449869156,-0.007179558277130127
1702338684807941000,35.629941162109375,0.0017461776733398438,0.023266766220331192,0.04911620914936066
1702338684903705300,35.725705322265625,0.027307510375976562,0.041664741933345795,0.032744139432907104
1702338685009784300,35.831784423828125,0.018204689025878906,-0.02453063428401947,-0.030477702617645264
1702338685105121300,35.927121337890625,-0.040160179138183594,0.009799808263778687,-0.020318463444709778
1702338685210468000,36.032468017578125,0.008304595947265625,0.021791178733110428,0.017123132944107056
1702338685306506800,36.1285068359375,-0.02061748504638672,-0.011626111343502998,0.03756898641586304
1702338685412647000,36.23464697265625,0.038552284240722656,-0.007750742137432098,-0.02726113796234131
1702338685507953400,36.329953369140625,-0.00044155120849609375,-0.0051671601831912994,0.03413303196430206
1702338685614063000,36.43606298828125,-0.017632484436035156,-0.011014370247721672,0.006452381610870361
1702338685709369300,36.531369384765625,0.014398574829101562,0.01881065033376217,0.03045514225959778
1702338685815448600,36.637448486328125,-0.016554832458496094,-0.039766695350408554,-0.0058501362800598145
1702338686016681500,36.838681396484375,-0.0019960403442382812,0.017276791855692863,0.012796372175216675
1702338686112201500,36.934201416015625,-0.0013303756713867188,-0.014635702595114708,0.008530914783477783
1702338686217548000,37.039548095703125,-0.027040481567382812,-0.009757135063409805,-0.020466282963752747
1702338686313617400,37.135617431640625,0.014135360717773438,0.004381351172924042,-0.01781398057937622
1702338686419696600,37.241696533203125,-0.016730308532714844,-0.02323266491293907,0.01427757740020752
1702338686515064000,37.33706396484375,0.015000343322753906,0.03681868687272072,-0.01663517951965332
1702338686621143000,37.44314306640625,0.03614330291748047,0.024545790627598763,-0.011090114712715149
1702338686716449500,37.538449462890625,0.016063690185546875,-0.03268003463745117,0.021224617958068848
1702338687425776400,38.2477763671875,0.0008172988891601562,-0.049330443143844604,0.016931459307670593
1702338687522120400,38.34412036132812,0.0005445480346679688,-0.059040527790784836,-0.014865919947624207
1702338687628230000,38.45022998046875,0.026506423950195312,0.039100341498851776,-0.009910613298416138
1702338687724268800,38.54626879882812,0.011780738830566406,-0.026211343705654144,-0.004404708743095398
1702338687829524000,38.65152392578125,-0.018289566040039062,0.008679334074258804,-0.0029364675283432007
1702338687924952300,38.74695239257812,-0.012192726135253906,-0.020367342978715897,-0.001957640051841736
1702338688031031600,38.85303149414062,-0.03428173065185547,0.012575335800647736,0.024848461151123047
1702338688126246400,38.94824633789062,0.028342247009277344,-0.0031288154423236847,0.002325892448425293
1702338688231745500,39.05374560546875,-0.007248878479003906,0.05022124946117401,0.0015505850315093994
1702338688327754000,39.14975390625,-0.03098583221435547,0.00732726976275444,-0.0251198410987854
1702338688433863400,39.25586352539062,-0.02065753936767578,0.00488484650850296,0.009406998753547668
1702338688529200400,39.35120043945312,0.008254051208496094,-0.032700374722480774,0.004180878400802612
1702338688635310000,39.45731005859375,-0.020650863647460938,0.030506879091262817,0.0027872473001480103
1702338688730616600,39.55261645507812,0.038529396057128906,-0.005815643817186356,0.02801172435283661
1702338688836970200,39.65897021484375,0.03455638885498047,0.032286688685417175,-0.013703912496566772
1702338688932032500,39.75403247070312,-0.029259681701660156,0.02152445912361145,-0.03528951108455658
1702338689038111500,39.86011157226562,-0.019506454467773438,0.014349639415740967,0.02878078818321228
1702338689133448400,39.95544848632812,0.013149261474609375,-0.016587138175964355,-0.006966382265090942
1702338689238825700,40.06082568359375,0.014561653137207031,0.010063648223876953,-0.020531877875328064
1702338689334834000,40.156833984375,-0.01644611358642578,-0.01944446563720703,0.012465640902519226
1702338689440943600,40.26294360351562,0.04133319854736328,-0.03911654278635979,0.03446398675441742
1702338689536280600,40.35828051757812,0.027555465698242188,-0.026077695190906525,-0.029331132769584656
1702338689642237400,40.46423754882812,-0.03133583068847656,-0.029025796800851822,0.013117492198944092
1702338689737727000,40.55972705078125,0.005263328552246094,-0.019350532442331314,-0.017408564686775208
1702338689843775700,40.66577563476562,0.02965259552001953,-0.012900352478027344,-0.011605709791183472
1702338689938776800,40.76077685546875,0.013178825378417969,0.037855785340070724,-0.013875946402549744
1702338690045069600,40.86706958007812,-0.043511390686035156,-0.0009163729846477509,-0.03539402782917023
1702338690140528600,40.96252856445312,-0.0028543472290039062,0.025542648509144783,0.02870093286037445
1702338690245783800,41.06778369140625,-0.0019025802612304688,0.017028432339429855,0.045287519693374634
1702338690342158300,41.16415844726563,0.01658344268798828,-0.02730322629213333,0.03756348788738251
1702338690447901700,41.26990161132812,-0.015088081359863281,-0.018202152103185654,0.025042325258255005
1702338690543360500,41.36536059570312,0.016084671020507812,0.040172360837459564,-0.009458690881729126
1702338690649439700,41.47143969726562,0.010723114013671875,0.02678157389163971,0.019847765564918518
1702338690744776700,41.56677661132812,0.013480186462402344,-0.03168635070323944,0.01753908395767212
1702338690850886100,41.67288623046875,-0.04331016540527344,0.031182894483208656,-0.014460846781730652
1702338690946192600,41.76819262695312,-0.002719879150390625,0.02078859694302082,-0.03579412400722504
1702338691051905500,41.87390551757812,0.033652305603027344,-0.008196333423256874,-0.024626359343528748
1702338691147639000,41.96963916015625,-0.029862403869628906,0.02068934217095375,-0.016417577862739563
1702338691253016300,42.07501635742187,0.006245613098144531,0.013792894780635834,-0.010945051908493042
1702338691348994000,42.170994140625,0.03030681610107422,-0.01695830188691616,0.018856853246688843
1702338691455103700,42.27710375976562,0.013469696044921875,0.0011808313429355621,-0.009054884314537048
1702338691550440700,42.37244067382812,0.00897979736328125,0.0007872208952903748,-0.00603659451007843
1702338691656458800,42.47845874023437,0.005986213684082031,0.000524815171957016,-0.004024401307106018
1702338691751856600,42.57385668945312,-0.02215290069580078,0.026503439992666245,0.023470625281333923
1702338691857966300,42.67996630859375,-0.009845733642578125,-0.005656402558088303,-0.0070043206214904785
1702338691953242000,42.7752421875,-0.03271770477294922,0.022382628172636032,-0.004669547080993652
1702338692058619400,42.88061938476562,-0.021811485290527344,-0.011231811717152596,-0.0031130313873291016
1702338692154383600,42.97638354492187,-0.027129173278808594,-0.004991915076971054,-0.010101422667503357
1702338692260066000,43.08206616210938,0.060364723205566406,-0.0033279433846473694,-0.006734281778335571
1702338692356074200,43.17807421875,0.04024314880371094,-0.02837219461798668,-0.004489526152610779
1702338692461970200,43.28397021484375,0.026828765869140625,0.03339233249425888,0.04931411147117615
1702338692557490200,43.379490234375,0.020638465881347656,0.014841035939753056,-0.004236191511154175
1702338692663599900,43.48559985351562,-0.012384414672851562,-0.016259539872407913,-0.002824127674102783
1702338692758936800,43.58093676757812,-0.008255958557128906,-0.06314682215452194,0.02427080273628235
1702338692865015800,43.68701586914062,0.020639419555664062,0.010209247469902039,-0.009973034262657166
1702338692960352800,43.78235278320312,0.01788806915283203,0.039408862590789795,-0.004432469606399536
1702338693066462500,43.88846240234375,-0.014218330383300781,0.00011901184916496277,-0.02910853922367096
1702338693161768700,43.98376879882812,-0.009478569030761719,0.026232905685901642,-0.01940569281578064
1702338693266810400,44.08881030273437,-0.0063190460205078125,-0.008664960041642189,0.03937000036239624
1702338693363154200,44.185154296875,-0.0063190460205078125,-0.008664960041642189,0.03937000036239624
1702338693469141800,44.29114184570312,-0.0063190460205078125,-0.008664960041642189,0.03937000036239624
1702338693564265200,44.38626513671875,-0.030365943908691406,0.03083427995443344,0.03670401871204376
1702338693670527200,44.49252734375,0.02159595489501953,-0.021283412352204323,-0.059209853410720825
1702338693766016800,44.58801684570312,0.024854660034179688,0.0067359451204538345,-0.008101165294647217
1702338693872157000,44.69415698242187,-0.035727500915527344,0.004490630701184273,-0.0054007768630981445
1702338693967433000,44.78943286132812,0.007554054260253906,0.0029937531799077988,-0.0036005228757858276
1702338694073573000,44.89557299804687,-0.005421638488769531,-0.008471693843603134,0.00806717574596405
1702338694168849000,44.99084887695312,-0.024529457092285156,0.004819734022021294,0.026303008198738098
1702338694274226200,45.09622607421875,-0.0058956146240234375,-0.028179258108139038,-0.024314433336257935
1702338694370142700,45.19214282226562,0.027451515197753906,0.023063600063323975,-0.005752265453338623
1702338694476344000,45.29834399414062,0.02875804901123047,-0.016006508842110634,0.02755756676197052
1702338694571681000,45.39368090820312,-0.012209892272949219,-0.00021364912390708923,0.007904186844825745
1702338694677699000,45.49969897460937,0.0023279190063476562,0.020782453939318657,-0.015655428171157837
1702338694773097000,45.59509692382812,0.012009620666503906,-0.007069917395710945,-0.020894303917884827
1702338694879206700,45.70120654296875,-0.023375511169433594,0.005754251033067703,-0.01392953097820282
1702338694974513000,45.79651293945312,-0.005125999450683594,0.014293523505330086,-0.009286358952522278
1702338695080622600,45.90262255859375,0.007050514221191406,-0.02185322716832161,-0.0061909109354019165
1702338695175898400,45.9978984375,0.007050514221191406,-0.02185322716832161,-0.0061909109354019165
1702338695281763800,46.10376391601562,0.007050514221191406,-0.02185322716832161,-0.0061909109354019165
1702338695377345000,46.19934497070312,0.007050514221191406,-0.02185322716832161,-0.0061909109354019165
1702338695483088400,46.30508837890625,0.02561473846435547,0.016813425347208977,0.022026285529136658
1702338695578761000,46.40076098632812,0.017076492309570312,0.011208949610590935,-0.01146937906742096
1702338695684718000,46.50671801757812,0.011384010314941406,0.007472632918506861,-0.007646247744560242
1702338695780177000,46.60217700195312,0.0075893402099609375,-0.021171810105443,-0.005097493529319763
1702338695886164500,46.70816455078125,-0.02277088165283203,0.00802601594477892,-0.002265557646751404
1702338695981593000,46.80359301757812,-0.015180587768554688,0.0053506772965192795,-0.0015103667974472046
1702338696087580700,46.90958056640625,-0.036273956298828125,0.0035671181976795197,-0.0010069161653518677
1702338696182978600,47.004978515625,0.02811431884765625,0.0023780788760632277,-0.0006712824106216431
1702338696288386300,47.11038623046875,0.012495040893554688,0.009774778969585896,0.043290913105010986
1702338696384303000,47.20630322265625,0.008330345153808594,-0.01963704451918602,0.0027070343494415283
1702338696490412500,47.31241259765625,0.005553245544433594,0.01306220144033432,0.02795824408531189
1702338696585505300,47.40750537109375,0.002468109130859375,0.014523277059197426,-0.02244552969932556
1702338696691859200,47.51385913085937,0.02779865264892578,-0.0164713803678751,0.011189877986907959
1702338696787257000,47.60925708007812,-0.03376483917236328,0.015172643586993217,0.007459908723831177
1702338696893336000,47.71533618164062,0.0036334991455078125,-0.01603846810758114,0.004973262548446655
1702338696988673000,47.81067309570312,1.1348237991333008,0.04517892003059387,0.2811511754989624
1702338697094019800,47.91601977539062,-0.2371845245361328,0.00396571634337306,-0.0740710198879242
1702338697190058500,48.01205859375,-0.15812301635742188,-0.023509753867983818,-0.07553425431251526
1702338697295405300,48.1174052734375,-0.41922760009765625,0.010480394586920738,-0.07650972902774811
1702338697391505700,48.213505615234375,0.29311466217041016,-0.10867075622081757,0.236225426197052
1702338697497585000,48.3195849609375,-0.1968526840209961,0.032156914472579956,-0.18248218297958374
1702338697592891100,48.41489111328125,-0.2358388900756836,0.04759150743484497,-0.20010530948638916
1702338697698970400,48.52097045898437,-0.10482406616210938,0.05602319911122322,-0.11508926749229431
1702338697794337800,48.616337890625,-0.06988239288330078,0.03734879940748215,-0.07672616839408875
1702338697900416800,48.722416748046875,0.005719184875488281,-0.0012543648481369019,-0.024997204542160034
1702338697995753700,48.817753662109375,-0.022340774536132812,0.025317320600152016,-0.06897193193435669
1702338698101680400,48.92368041992187,-0.022340774536132812,0.025317320600152016,-0.06897193193435669
1702338698197200400,49.01920043945312,-0.022340774536132812,0.025317320600152016,-0.06897193193435669
1702338698302516500,49.1245166015625,-0.022340774536132812,0.025317320600152016,-0.06897193193435669
1702338698398585900,49.2205859375,-0.07242965698242188,-0.004046672955155373,-0.004131510853767395
1702338698505336300,49.32733642578125,-0.02870464324951172,0.012154793366789818,-0.019278720021247864
1702338698705745200,49.5277451171875,-0.03018665313720703,-0.008551184087991714,-0.008564934134483337
1702338698801051600,49.6230517578125,0.011258125305175781,0.025681452825665474,0.004747405648231506
1702338698907039200,49.72903930664062,0.028420448303222656,-0.014261273667216301,0.003164932131767273
1702338699002834000,49.824833984375,0.008489608764648438,-0.019964871928095818,-0.01881493628025055
1702338699108821500,49.93082153320312,0.005660057067871094,-0.013309914618730545,0.008381590247154236
1702338699204219400,50.02621948242187,0.014230728149414062,0.02250896580517292,0.005587726831436157
1702338699309688000,50.13168798828125,-0.011427879333496094,0.015005976893007755,-0.017199739813804626
1702338699405635300,50.22763525390625,-0.01808643341064453,0.010003984905779362,0.01992592215538025
1702338699511775500,50.333775390625,0.02978229522705078,-0.03518044948577881,0.002816423773765564
1702338699607082000,50.42908203125,0.01985454559326172,-0.01298610121011734,-0.008579745888710022
1702338699713161000,50.535160888671875,-0.007678031921386719,0.01226748526096344,-0.016187354922294617
1702338699808528400,50.6305283203125,-0.02604389190673828,0.01863568089902401,-0.021248921751976013
1702338699914241300,50.7362412109375,-0.02604389190673828,0.01863568089902401,-0.021248921751976013
1702338700009761300,50.83176123046875,-0.02604389190673828,0.01863568089902401,-0.021248921751976013
1702338700115748900,50.937748779296875,-0.02604389190673828,0.01863568089902401,-0.021248921751976013
1702338700211299300,51.03329931640625,-0.02604389190673828,0.01863568089902401,-0.021248921751976013
1702338700316676600,51.138676513671875,0.009346961975097656,0.008282524533569813,-0.026872888207435608
1702338700412746000,51.23474609375,-0.019911766052246094,-0.046785447746515274,0.008228138089179993
1702338700518733600,51.34073364257812,0.012868881225585938,0.02111683040857315,0.005485430359840393
1702338700614162000,51.436161865234375,0.008579254150390625,-0.012075677514076233,0.0036569535732269287
1702338700720088600,51.54208862304687,0.0038127899169921875,-0.031520530581474304,-0.0070925503969192505
1702338700815639000,51.63763916015625,0.0025415420532226562,0.005139876157045364,-0.004728361964225769
1702338700921657000,51.743656982421875,-0.02444934844970703,0.029580147936940193,0.02300131320953369
1702338701016994000,51.838994140625,0.006562232971191406,0.01314673200249672,-0.01593075692653656
1702338701122859500,51.94485961914062,-0.021768569946289062,0.008764487691223621,-0.01062050461769104
1702338701218379500,52.04037963867187,-0.014512062072753906,-0.020310573279857635,-0.007080331444740295
1702338701323787300,52.14578735351562,0.01646900177001953,-0.03969394788146019,0.04758690297603607
1702338701419826000,52.241825927734375,0.007319450378417969,0.02594751864671707,0.012431874871253967
1702338701525874700,52.34787475585937,-0.047417640686035156,0.017298346385359764,0.008287906646728516
1702338701621242000,52.4432421875,-0.03161144256591797,-0.01462133415043354,0.005525261163711548
1702338701727321000,52.549321044921875,0.0050792694091796875,-0.00974755547940731,-0.022470057010650635
1702338701822658000,52.644657958984375,0.01968669891357422,-0.030485812574625015,0.016166865825653076
1702338701928737300,52.7507373046875,-0.013018608093261719,-0.020323876291513443,-0.015375658869743347
1702338702024074000,52.846073974609375,-0.03483295440673828,0.01260431483387947,0.015903115272521973
1702338702129390300,52.95139038085937,0.028098106384277344,-0.003115937113761902,-0.010367661714553833
1702338702225337600,53.04733764648437,-0.05971813201904297,0.024076271802186966,0.045395344495773315
1702338702330867200,53.1528671875,-0.013658523559570312,0.016050847247242928,0.004109993577003479
1702338702426906000,53.248906005859375,0.043190956115722656,0.010700564831495285,-0.02341356873512268
1702338702532985000,53.354985107421875,0.019196510314941406,0.013473660685122013,0.007029667496681213
1702338702628322000,53.450322021484375,-0.013345718383789062,0.008982440456748009,0.004686444997787476
1702338702734401300,53.5564013671875,-0.008896827697753906,-0.04631883651018143,-0.02302926778793335
1702338702830196000,53.65219604492187,0.013474464416503906,-0.003150440752506256,-0.01895308494567871
1702338702935847700,53.75784765625,0.008982658386230469,0.024053269997239113,0.013518169522285461
1702338703031062500,53.8530625,0.005988121032714844,-0.010118050500750542,0.009012103080749512
1702338703137019600,53.95901953125,-0.04830455780029297,0.019408198073506355,0.006008058786392212
1702338703232539600,54.05453955078125,0.013396263122558594,-0.00880984403192997,-0.014765456318855286
1702338703337917000,54.1599169921875,-0.017212867736816406,-0.03202679380774498,-0.009843632578849792
1702338703433986300,54.255986328125,-0.011475563049316406,0.030955933034420013,-0.006562426686286926
1702338703540065300,54.362065185546875,0.018492698669433594,0.020637288689613342,-0.004374951124191284
1702338703635280100,54.457280029296875,0.03437232971191406,-0.008263582363724709,-0.001944422721862793
1702338703741512000,54.56351196289062,-0.003238677978515625,-0.03166262060403824,-0.0012962818145751953
1702338703836818200,54.658818115234375,-0.00215911865234375,0.005045149475336075,-0.0008641928434371948
1702338703943324700,54.76532470703125,-0.03582477569580078,-0.02391127496957779,0.05192303657531738
1702338704144038700,54.96603857421875,-0.015921592712402344,0.03296204283833504,-0.011794522404670715
1702338704239619800,55.06161987304687,0.04168224334716797,0.02197469398379326,0.018290549516677856
1702338704345241000,55.167240966796875,0.018525123596191406,0.009766530245542526,-0.01802442967891693
1702338704440913700,55.26291357421875,0.012350082397460938,0.006511020008474588,-0.012016281485557556
1702338704547145500,55.3691455078125,-0.017910003662109375,-0.021812884137034416,-0.008010849356651306
1702338704642451700,55.46445166015625,-0.01194000244140625,0.011611641384661198,-0.005340561270713806
1702338704748439300,55.570439208984375,0.012122154235839844,0.013878583908081055,0.006340876221656799
1702338704843898400,55.6658984375,0.008081436157226562,-0.016901174560189247,0.004227250814437866
1702338704949794300,55.771794189453125,-0.020755767822265625,0.014886114746332169,0.002818167209625244
1702338705044948000,55.866947998046875,-0.009224891662597656,0.006616050843149424,0.009966984391212463
1702338705151302000,55.97330200195312,0.01999378204345703,0.004410700406879187,0.006644651293754578
1702338705246699800,56.06869970703125,0.013329505920410156,0.002940466860309243,0.00442977249622345
1702338705352077000,56.1740771484375,0.008886337280273438,0.0019603113178163767,0.029106736183166504
1702338705448177000,56.27017700195312,-0.02219390869140625,0.0008712494745850563,0.012936323881149292
1702338705554072800,56.37607275390625,0.011347770690917969,0.0005808330024592578,0.03477777540683746
1702338705649562400,56.471562255859375,0.007565498352050781,-0.025766342878341675,-0.0029683858156204224
1702338705755611000,56.57761083984375,0.005043983459472656,-0.04333112761378288,-0.001978933811187744
1702338705850978300,56.672978271484375,-0.015187263488769531,0.024330995976924896,-0.0008795261383056641
1702338705956996400,56.778996337890625,0.01601886749267578,-0.009932899847626686,-0.02673991024494171
1702338706052394500,56.87439453125,-0.041617393493652344,-0.006621934473514557,0.008326947689056396
1702338706158107400,56.980107421875,-0.01849651336669922,0.02321048267185688,-0.0137348473072052
1702338706253780000,57.07578002929687,0.013822555541992188,-0.036833472549915314,-0.009156569838523865
1702338706359157000,57.181156982421875,-0.016938209533691406,0.001597914844751358,0.020049184560775757
1702338706455226400,57.277226318359375,0.04100513458251953,0.027218841016292572,0.03951968252658844
1702338706561305600,57.3833056640625,0.018224716186523438,-0.01405630074441433,-0.02602498233318329
1702338706656673000,57.47867309570312,0.012149810791015625,-0.009370867162942886,-0.017349988222122192
1702338706762691000,57.58469116210937,-0.01804351806640625,-0.006247244775295258,-0.011566653847694397
1702338706858089000,57.6800888671875,0.0141143798828125,-0.03031839430332184,-0.007711097598075867
1702338706964137500,57.786137451171875,-0.02859210968017578,-0.00475698709487915,-0.003427162766456604
1702338707059474400,57.881474365234375,0.007092475891113281,-0.029324889183044434,-0.0022847801446914673
1702338707165462000,57.9874619140625,0.0047283172607421875,-0.01954992488026619,-0.0015231817960739136
1702338707260524300,58.082524169921875,0.03696250915527344,0.026182563975453377,-0.0006769746541976929
1702338707366237000,58.18823681640625,-0.0015020370483398438,-0.008698521181941032,-0.00045131146907806396
1702338707462184200,58.28418408203125,-0.027154922485351562,0.02035455033183098,-0.00030086934566497803
1702338707568385500,58.390385498046875,0.008049964904785156,-0.012583864852786064,0.05210654437541962
1702338707663753000,58.4857529296875,0.03843879699707031,-0.04046424850821495,-0.011712953448295593
1702338707769771000,58.59177099609375,-0.0005178451538085938,0.025330962613224983,0.018344923853874207
1702338707865108000,58.68710791015625,0.02579784393310547,0.016887309029698372,0.03838351368904114
1702338707971217400,58.793217529296875,-0.03509807586669922,-0.014895359054207802,0.025589004158973694
1702338708066554400,58.888554443359375,-0.015599250793457031,0.04568696767091751,0.020090728998184204
1702338708171931600,58.993931640625,-0.036553382873535156,0.004304414615035057,0.013393819332122803
1702338708267970600,59.089970458984375,0.027937889099121094,-0.023283954709768295,0.008929207921028137
1702338708373286700,59.19528662109375,0.021134376525878906,0.015805140137672424,-0.039620742201805115
1702338708469386500,59.291386474609375,0.04023265838623047,0.010536760091781616,-0.026413828134536743
1702338708575465500,59.397465576171875,0.0006780624389648438,0.007024506572633982,-0.01760922372341156
1702338708670833000,59.4928330078125,0.0004520416259765625,0.004683004226535559,0.014414072036743164
1702338708776759600,59.598759521484375,0.00020122528076171875,-0.015354374423623085,-0.011029452085494995
1702338708872218400,59.69421826171875,0.026277542114257812,-0.03638981282711029,0.018800586462020874
1702338708978297600,59.800297607421875,-0.034778594970703125,-0.02425987645983696,0.038687288761138916
1702338709073634600,59.895634521484375,-0.02318572998046875,0.00998031347990036,-0.026515603065490723
1702338709178981000,60.000981201171875,0.024559974670410156,0.013153549283742905,0.014368847012519836
1702338709275020000,60.09702001953125,0.016373634338378906,-0.01738453283905983,0.00957922637462616
1702338709380641300,60.202641357421875,0.010915756225585938,-0.011589691042900085,-0.01976741850376129
1702338709476130800,60.298130859375,0.010915756225585938,-0.011589691042900085,-0.01976741850376129
1702338709582423600,60.404423583984375,0.010915756225585938,-0.011589691042900085,-0.01976741850376129
1702338709677882600,60.499882568359375,0.010915756225585938,-0.011589691042900085,-0.01976741850376129
1702338709783839500,60.605839599609375,-0.024105072021484375,-0.007726460695266724,0.028671488165855408
1702338709879298600,60.701298583984375,-0.005602836608886719,0.04715615510940552,-0.0018105655908584595
1702338709985347000,60.80734716796875,0.017179489135742188,0.020980078727006912,-0.0012070387601852417
1702338710080714500,60.902714599609375,0.021910667419433594,-0.006938166916370392,0.009652659296989441
1702338710186061300,61.008061279296875,-0.0063076019287109375,-0.004625443369150162,-0.024947136640548706
1702338710283107000,61.105107177734375,-0.02372455596923828,0.022358309477567673,0.01680883765220642
1702338710387904500,61.209904541015625,-0.03673076629638672,0.004438009113073349,0.021673426032066345
1702338710483211000,61.3052109375,-0.0035724639892578125,0.002958673983812332,0.024906307458877563
1702338710589198300,61.4111982421875,0.018543243408203125,0.02289733476936817,-0.014778032898902893
1702338710684962600,61.506962646484375,0.03327655792236328,0.004807533696293831,-0.009852021932601929
1702338710790706000,61.61270581054688,0.011727333068847656,-0.01771986298263073,0.003889337182044983
1702338710886378800,61.708378662109375,-0.013106346130371094,-0.0013558845967054367,-0.007864460349082947
1702338710992457700,61.814457763671875,-0.02965259552001953,0.009563606232404709,-0.0261678546667099
1702338711087764200,61.90976416015625,0.0011463165283203125,-0.004091791808605194,0.0034796446561813354
1702338711193172000,62.015171875,0.011231422424316406,0.01819702424108982,0.0023197680711746216
1702338711289210600,62.111210693359375,0.011231422424316406,0.01819702424108982,0.0023197680711746216
1702338711395167700,62.217167724609375,0.011231422424316406,0.01819702424108982,0.0023197680711746216
1702338711492579800,62.314579833984375,0.011231422424316406,0.01819702424108982,0.0023197680711746216
1702338711596644900,62.418644775390625,0.011231422424316406,0.01819702424108982,0.0023197680711746216
1702338711691707000,62.51370678710938,-0.05080127716064453,0.008087566122412682,-0.030354633927345276
1702338711797999600,62.61999951171875,-0.007714271545410156,-0.04691541939973831,-0.020236417651176453
1702338711893458700,62.715458740234375,-0.005143165588378906,0.021030182018876076,0.012662619352340698
1702338711999415800,62.821415771484375,0.02272510528564453,-0.03828700631856918,0.008441746234893799
1702338712094874600,62.91687451171875,-0.02476787567138672,0.026572825387120247,0.012469738721847534
1702338712200221400,63.022221435546875,-0.016511917114257812,0.017715217545628548,-0.017840400338172913
1702338712296260400,63.11826025390625,0.015145301818847656,0.011810144409537315,0.04041352868080139
1702338712401637400,63.223637451171875,0.010096549987792969,0.007873429916799068,0.0007887780666351318
1702338712497676300,63.31967626953125,0.004487037658691406,-0.02265426330268383,-0.017085149884223938
1702338712603694300,63.4256943359375,0.0029916763305664062,-0.015102842822670937,-0.01139010488986969
1702338712699122700,63.521122802734375,0.028138160705566406,0.016085002571344376,-0.007593408226966858
1702338712804866300,63.6268662109375,0.012505531311035156,-0.01900467462837696,0.022778719663619995
1702338713504573200,64.3265732421875,-0.009664535522460938,-0.011552119627594948,0.00777965784072876
1702338713610011400,64.43201147460937,-0.058750152587890625,0.018452150747179985,0.00518643856048584
1702338713706172400,64.52817236328124,0.013140678405761719,0.012301433831453323,-0.02269594371318817
1702338713811366400,64.63336645507812,-0.017393112182617188,0.00820095557719469,-0.015130624175071716
1702338713907588400,64.72958837890624,0.04456615447998047,0.003644868964329362,-0.006724730134010315
1702338714012904400,64.83490454101562,0.0035676956176757812,0.0024299125652760267,-0.004483148455619812
1702338714108882200,64.93088208007812,0.02852153778076172,-0.024533621966838837,-0.002988770604133606
1702338714214198500,65.03619848632812,0.02852153778076172,-0.024533621966838837,-0.002988770604133606
1702338714310420500,65.13242041015624,0.02852153778076172,-0.024533621966838837,-0.002988770604133606
1702338714415553500,65.23755346679687,0.02852153778076172,-0.024533621966838837,-0.002988770604133606
1702338714511806000,65.33380590820312,-0.0019006729125976562,-0.02158442698419094,0.029389724135398865
1702338714617061000,65.43906103515624,-0.011734962463378906,-0.00393226183950901,-0.011789098381996155
1702338714713252400,65.53525244140624,0.013101577758789062,-0.02354639396071434,-0.007859393954277039
1702338714818507500,65.64050756835937,0.019191741943359375,-0.005230065435171127,0.015685290098190308
1702338714914668500,65.73666845703124,0.0023374557495117188,0.027895532548427582,0.010456860065460205
1702338715019587800,65.841587890625,-0.04028129577636719,-0.02325275167822838,0.006971240043640137
1702338715116084500,65.93808447265624,-0.04028129577636719,-0.02325275167822838,0.006971240043640137
1702338715221309200,66.04330908203124,-0.04028129577636719,-0.02325275167822838,0.006971240043640137
1702338715317470000,66.13946997070312,-0.04028129577636719,-0.02325275167822838,0.006971240043640137
1702338715423488000,66.24548803710937,-0.0007009506225585938,0.026347937062382698,0.009876161813735962
1702338715518825000,66.34082495117187,0.02567577362060547,0.0175652913749218,-0.019569456577301025
1702338715624934700,66.4469345703125,0.02884387969970703,-0.044500332325696945,-0.026133254170417786
1702338715720363000,66.54236303710937,0.01922893524169922,-0.0035133250057697296,-0.01742216944694519
1702338715826320100,66.64832006835937,0.012819290161132812,0.023811347782611847,0.014538779854774475
1702338715921443300,66.743443359375,0.0056972503662109375,0.010582820512354374,-0.010974034667015076
1702338716027736000,66.84973608398437,-0.022345542907714844,0.007055213674902916,0.044991105794906616
1702338716123164400,66.94516430664062,-0.014897346496582031,0.0047034756280481815,-0.022313058376312256
1702338716228694300,67.0506943359375,0.016211509704589844,-0.023017914965748787,-0.014875367283821106
1702338716324580600,67.14658056640624,-0.02765941619873047,0.024641234427690506,-0.006611272692680359
1702338716430568200,67.25256811523437,0.007714271545410156,0.01642748899757862,0.021746039390563965
1702338716525874400,67.34787451171874,-0.047163963317871094,0.010951658710837364,-0.011656209826469421
1702338716632228400,67.45422827148437,-0.0052890777587890625,-0.04500602185726166,0.018382757902145386
1702338716727290600,67.54929052734374,0.10225391387939453,-0.03743838518857956,0.025605812668800354
1702338716833522200,67.65552221679687,0.042016029357910156,-0.02495892345905304,0.017070531845092773
1702338716928523500,67.7505234375,0.0018568038940429688,0.03566784784197807,0.01138034462928772
1702338717034450000,67.85644995117187,0.0018568038940429688,0.03566784784197807,0.01138034462928772
1702338717130336300,67.95233618164062,0.0018568038940429688,0.03566784784197807,0.01138034462928772
1702338717235682800,68.05768286132812,0.0018568038940429688,0.03566784784197807,0.01138034462928772
1702338717331660500,68.15366064453124,-0.009219169616699219,0.023778565227985382,-0.034252703189849854
1702338717437697500,68.25969750976563,-0.037528038024902344,-0.015529867261648178,-0.0333026647567749
1702338717533065000,68.35506494140625,-0.014561653137207031,0.021028997376561165,0.009180471301078796
1702338717639174400,68.46117431640624,-0.020165443420410156,-0.017362911254167557,0.006120309233665466
1702338717734389200,68.55638916015624,0.028395652770996094,-0.001117916777729988,-0.0063771456480026245
1702338717840499000,68.6624990234375,-0.012452125549316406,-0.0007452778518199921,-0.004251435399055481
1702338717935896800,68.75789672851562,0.0021657943725585938,0.02042803354561329,0.028547942638397217
1702338718041579300,68.86357934570313,0.0009622573852539062,0.01256491057574749,-0.02566923201084137
1702338718136977200,68.95897705078124,0.02155590057373047,-0.0020807497203350067,-0.006655469536781311
1702338718242385000,69.06438500976563,0.014370918273925781,-0.02231205254793167,-0.025351688265800476
1702338718338393300,69.16039331054688,-0.0008764266967773438,-0.014874700456857681,0.03540600836277008
1702338718444716500,69.26671655273438,0.009873390197753906,0.02146577462553978,0.023604005575180054
1702338718540084000,69.362083984375,-0.014332771301269531,0.01431051641702652,0.01573599874973297
1702338718646315500,69.4683154296875,0.011359214782714844,-0.011384541168808937,-0.02090175449848175
1702338718741591600,69.56359155273438,-0.03426647186279297,-0.028514578938484192,-0.024391859769821167
1702338718847487500,69.66948754882813,-0.03426647186279297,-0.028514578938484192,-0.024391859769821167
1702338718942885400,69.76488549804688,-0.03426647186279297,-0.028514578938484192,-0.024391859769821167
1702338719048995000,69.8709951171875,-0.03426647186279297,-0.028514578938484192,-0.024391859769821167
1702338719144393000,69.96639306640625,-0.03426647186279297,-0.028514578938484192,-0.024391859769821167
1702338719249465000,70.07146508789063,-0.03091907501220703,-0.002209007740020752,-0.010840818285942078
1702338719345809200,70.16780908203125,0.031683921813964844,0.024680892005562782,-0.007227212190628052
1702338719451796500,70.27379638671874,-0.031174659729003906,-0.009699637070298195,-0.004818141460418701
1702338719547133400,70.36913354492188,-0.046936988830566406,0.019687140360474586,-0.0032120943069458008
1702338719653334800,70.47533471679688,0.03144645690917969,-0.043557289987802505,-0.0014276057481765747
1702338719748671500,70.57067138671874,0.020964622497558594,0.023268934339284897,-0.0009517371654510498
1702338719854506500,70.67650659179688,-0.012177467346191406,0.015512622892856598,-0.0006344914436340332
1702338719950209800,70.77220971679688,-0.008118629455566406,0.010341748595237732,0.05188412964344025
1702338720055922700,70.87792260742188,0.039971351623535156,0.03946775197982788,0.031777456402778625
1702338720151381500,70.97338159179688,0.026647567749023438,-0.025995295494794846,-0.03112216293811798
1702338720256758800,71.0787587890625,0.017765045166015625,-0.043483760207891464,-0.020748108625411987
1702338720352553500,71.17455346679688,-0.03568744659423828,-0.028043970465660095,0.016932174563407898
1702338720458876700,71.28087670898438,-0.02379131317138672,0.0074575841426849365,-0.014865443110466003
1702338720554213600,71.37621362304688,-0.015860557556152344,0.0049717240035533905,-0.009910300374031067
1702338720660201200,71.482201171875,0.015580177307128906,0.0033144839107990265,0.045700252056121826
1702338720755751700,71.57775170898438,0.010386466979980469,0.028363220393657684,0.004313260316848755
1702338720861739300,71.6837392578125,0.010386466979980469,0.028363220393657684,0.004313260316848755
1702338720957167600,71.77916772460938,0.010386466979980469,0.028363220393657684,0.004313260316848755
1702338721063185700,71.885185546875,0.012152671813964844,0.02936616912484169,-0.002353176474571228
1702338721158583800,71.98058374023438,-0.012823104858398438,0.019577445462346077,0.019356101751327515
1702338721263930400,72.08593041992188,0.033290863037109375,0.002594274003058672,-0.00802081823348999
1702338721359969300,72.18196923828125,0.0012788772583007812,-0.008727841079235077,-0.015814736485481262
1702338721465926100,72.28792602539062,-0.009614944458007812,-0.01628609001636505,-0.00007562339305877686
1702338721561415700,72.38341577148438,0.004057884216308594,0.01006749365478754,-0.020975306630134583
1702338721667403300,72.4894033203125,0.004057884216308594,0.01006749365478754,-0.020975306630134583
1702338721762832000,72.58483178710938,0.004057884216308594,0.01006749365478754,-0.020975306630134583
1702338721868850000,72.69084985351563,0.004057884216308594,0.01006749365478754,-0.020975306630134583
1702338721964247800,72.78624780273438,0.004057884216308594,0.01006749365478754,-0.020975306630134583
1702338722070204700,72.89220458984374,0.015743255615234375,0.004474441520869732,-0.04418361186981201
1702338722165633300,72.98763330078125,-0.01564788818359375,-0.049324169754981995,-0.003312349319458008
1702338722271010600,73.09301049804688,-0.010432243347167969,-0.006729215383529663,0.05009889602661133
1702338722367354400,73.18935424804687,-0.0656576156616211,0.014444947242736816,-0.012605234980583191
1702338722473036800,73.29503686523438,-0.017618179321289062,0.009629964828491211,0.017750069499015808
1702338722568160000,73.39015991210937,0.040551185607910156,-0.01973358727991581,-0.01432017982006073
1702338722674452700,73.49645263671874,0.040551185607910156,-0.01973358727991581,-0.01432017982006073
1702338722769942300,73.5919423828125,0.040551185607910156,-0.01973358727991581,-0.01432017982006073
1702338722875685600,73.697685546875,0.040551185607910156,-0.01973358727991581,-0.01432017982006073
1702338722971327700,73.79332763671874,0.016576766967773438,0.023455195128917694,-0.009546786546707153
1702338723076674600,73.89867456054688,0.0005941390991210938,0.01563679613173008,0.03548525273799896
1702338723172621800,73.99462182617188,-0.010071754455566406,-0.010490181855857372,0.0027319490909576416
1702338723278090500,74.10009057617188,-0.02762889862060547,-0.038385868072509766,-0.00864623486995697
1702338723374160000,74.19615991210938,-0.018419265747070312,0.016259191557765007,0.015160724520683289
1702338723480269600,74.30226953125,0.060942649841308594,-0.010085424408316612,0.010107144713401794
1702338723575575800,74.39757592773438,0.060942649841308594,-0.010085424408316612,0.010107144713401794
1702338723681075200,74.5030751953125,0.060942649841308594,-0.010085424408316612,0.010107144713401794
1702338723777022500,74.5990224609375,0.060942649841308594,-0.010085424408316612,0.010107144713401794
1702338723882948900,74.70494897460938,0.019713401794433594,0.0142012694850564,-0.050787538290023804
1702338723978408000,74.80040795898438,0.03928565979003906,0.009467513300478458,-0.007714971899986267
1702338724084395500,74.9063955078125,0.0000247955322265625,0.012925637885928154,0.022724688053131104
1702338724179793400,75.00179345703125,-0.052280426025390625,-0.017536472529172897,-0.011003777384757996
1702338724285170700,75.10717065429688,0.01744365692138672,0.014462582767009735,-0.007335856556892395
1702338724381240000,75.20323999023438,-0.04066753387451172,-0.016511842608451843,-0.004890576004981995
1702338724487258000,75.30925805664063,-0.0006389617919921875,-0.007338598370552063,-0.002173587679862976
1702338724582656000,75.40465600585938,-0.026579856872558594,-0.0048923976719379425,0.024704501032829285
1702338724688613000,75.51061303710938,0.034577369689941406,-0.02941516414284706,-0.009683892130851746
1702338724783736300,75.605736328125,-0.019494056701660156,0.013080157339572906,-0.0043039470911026
1702338724890090000,75.71209008789063,-0.03914928436279297,-0.01743346080183983,-0.0028692930936813354
1702338724985488000,75.80748779296874,-0.026099205017089844,0.01453125849366188,-0.0019128620624542236
1702338725091445000,75.91344506835938,0.034897804260253906,-0.016466058790683746,-0.0012752413749694824
1702338725186873600,76.00887353515625,-0.010633468627929688,0.010117460042238235,-0.0005667656660079956
1702338725292159200,76.1141591796875,-0.033242225646972656,0.006744973361492157,0.025775715708732605
1702338725388320000,76.21032006835938,-0.022161483764648438,-0.021656915545463562,0.017183810472488403
1702338725494307600,76.3163076171875,0.037522315979003906,0.011715620756149292,0.03760942816734314
1702338725589736000,76.41173583984374,-0.009467124938964844,0.022642651572823524,-0.0007204115390777588
1702338725695693000,76.51769311523438,-0.03246498107910156,0.015095100738108158,-0.026633843779563904
1702338725791152000,76.61315209960938,0.004509925842285156,-0.016090163961052895,0.0345512330532074
1702338725897231000,76.71923120117188,0.019433021545410156,-0.0071511827409267426,0.006638243794441223
1702338725992568000,76.81456811523438,0.012955665588378906,-0.03092101961374283,0.004425495862960815
1702338726098555600,76.9205556640625,0.008637428283691406,0.005539551377296448,-0.02320323884487152
1702338726193953500,77.01595361328125,0.0057582855224609375,0.029846597462892532,-0.015468820929527283
1702338726299330800,77.12133081054688,-0.006152153015136719,0.013265153393149376,0.045432090759277344
1702338726395430700,77.2174306640625,-0.004101753234863281,-0.0173101294785738,0.030288055539131165
1702338726501570800,77.32357080078125,-0.0027341842651367188,-0.011540086939930916,-0.032115086913108826
1702338726597396000,77.41939599609375,0.02492809295654297,0.012306781485676765,-0.04041676223278046
1702338726702834200,77.52483422851563,-0.03567790985107422,0.008204520680010319,-0.0008011162281036377
1702338726798232000,77.62023217773438,-0.02378559112548828,-0.020683884620666504,0.025619477033615112
1702338726904341800,77.726341796875,0.03643989562988281,-0.013789257034659386,0.017079651355743408
1702338726999648300,77.82164819335938,0.016195297241210938,-0.02356426790356636,-0.0011269152164459229
1702338727105574700,77.92757470703125,0.010796546936035156,0.010444052517414093,-0.026904836297035217
1702338727201033700,78.02303369140625,0.007197380065917969,0.006962701678276062,0.03437057137489319
1702338727306441500,78.12844140625,0.004797935485839844,-0.021511763334274292,0.02291370928287506
1702338727402567700,78.22456762695313,0.004797935485839844,-0.021511763334274292,0.02291370928287506
1702338727508585700,78.33058569335938,0.004797935485839844,-0.021511763334274292,0.02291370928287506
1702338727603892000,78.42589208984376,0.004797935485839844,-0.021511763334274292,0.02291370928287506
1702338727710764500,78.5327646484375,0.016076087951660156,0.032285597175359726,-0.007248446345329285
1702338727911051500,78.73305151367188,-0.02423381805419922,0.021324114874005318,-0.017171457409858704
1702338728006357800,78.82835766601562,-0.005698204040527344,0.003758719190955162,0.019934609532356262
1702338728112467500,78.93446752929688,0.02758312225341797,-0.007961716502904892,-0.007635146379470825
1702338728208109600,79.03010961914063,0.02758312225341797,-0.007961716502904892,-0.007635146379470825
1702338728313517300,79.13551733398438,0.02758312225341797,-0.007961716502904892,-0.007635146379470825
1702338728409586700,79.23158666992188,0.02758312225341797,-0.007961716502904892,-0.007635146379470825
1702338728515482600,79.33748266601563,0.02758312225341797,-0.007961716502904892,-0.007635146379470825
1702338728611002600,79.43300268554688,-0.007754325866699219,0.015617074444890022,0.010606110095977783
1702338728716715500,79.53871557617188,0.022696495056152344,-0.019212642684578896,-0.01272188127040863
1702338728812388000,79.63438818359376,-0.011012077331542969,-0.0389619916677475,0.04382586479187012
1702338728918345200,79.74034521484376,-0.03349494934082031,0.00017890334129333496,0.003063678741455078
1702338729013438000,79.83543798828126,-0.006165504455566406,-0.008638342842459679,0.0013616234064102173
1702338729119791600,79.94179150390624,0.022032737731933594,-0.005758896470069885,-0.02524581551551819
1702338729215189800,80.03718969726563,0.014688491821289062,-0.029992830008268356,0.009323015809059143
1702338729320597200,80.14259716796874,0.009792327880859375,0.0061583444476127625,0.03236889839172363
1702338729416636200,80.23863623046876,-0.021791458129882812,0.02017275057733059,-0.011767387390136719
1702338729522623700,80.34462377929688,0.011615753173828125,0.013448500074446201,0.018308639526367188
1702338729618052000,80.44005200195312,-0.01839923858642578,-0.043341461569070816,-0.013947814702987671
1702338729723978800,80.54597875976563,-0.03841972351074219,-0.02889430895447731,-0.035452112555503845
1702338729819468300,80.64146826171876,0.0003604888916015625,0.004593793302774429,0.010397061705589294
1702338729925425200,80.74742504882812,-0.025913238525390625,0.029216092079877853,0.0069313645362854
1702338730020792600,80.84279248046874,-0.01727581024169922,0.019477395340800285,0.030774474143981934
1702338730126963200,80.94896313476562,0.02718639373779297,-0.00006123479397501796,-0.029911741614341736
1702338730222269700,81.04426977539063,0.01812458038330078,-0.026194388046860695,0.032365962862968445
1702338730327647000,81.14964697265626,-0.014060020446777344,-0.017462925985455513,-0.004576265811920166
1702338730423716400,81.24571630859376,-0.03552722930908203,0.014511613175272942,0.023102715611457825
1702338730529764900,81.35176489257813,-0.024507522583007812,-0.028421815484762192,0.027703583240509033
1702338730625132300,81.44713232421876,0.009815216064453125,-0.01894787698984146,-0.0076845139265060425
1702338730731119900,81.55311987304688,0.03268718719482422,0.039675209671258926,-0.03127656877040863
1702338730827311000,81.64931103515624,0.02324199676513672,-0.025955848395824432,-0.013900697231292725
1702338730932475000,81.75447485351563,-0.03680229187011719,0.03500322997570038,0.043039992451667786
1702338731027964400,81.84996435546876,0.0016183853149414062,-0.002818077802658081,0.028693318367004395
1702338731134104300,81.95610424804687,-0.02507495880126953,0.02427484467625618,-0.03317825496196747
1702338731229350000,82.05134985351563,0.006291389465332031,0.010788818821310997,-0.023463740944862366
1702338731334757600,82.15675756835938,0.03033733367919922,-0.018961017951369286,0.010511070489883423
1702338731430796300,82.25279638671876,-0.0059185028076171875,0.013512885197997093,0.007007375359535217
1702338731536753400,82.35875341796876,0.048351287841796875,-0.04329853877425194,0.004671573638916016
1702338731632212200,82.45421215820312,-0.02208995819091797,-0.0018080845475196838,-0.04150284826755524
1702338731738230500,82.56023046875,-0.014726638793945312,-0.001205388456583023,-0.0015251785516738892
1702338731833628400,82.65562841796876,0.016325950622558594,-0.0008035935461521149,-0.0010167807340621948
1702338731940073700,82.76207373046876,-0.0014553070068359375,0.01707855612039566,0.025701656937599182
1702338732141062400,82.9630625,0.03421497344970703,-0.03599880635738373,0.03757651150226593
1702338732236429800,83.05842993164063,-0.029486656188964844,-0.023999202996492386,-0.027256116271018982
1702338732341807000,83.16380712890626,0.039191246032714844,-0.019384168088436127,0.014039725065231323
1702338732437876500,83.25987646484376,-0.026169776916503906,-0.012922778725624084,0.009359806776046753
1702338732543833300,83.36583325195312,0.008707046508789062,0.04369194060564041,-0.0199136883020401
1702338732639170300,83.46117041015626,0.005805015563964844,0.02912795916199684,-0.013275787234306335
1702338732745310500,83.567310546875,0.0025796890258789062,-0.0044899508357048035,0.03768891096115112
1702338732840708400,83.66270825195312,0.027863502502441406,-0.0029933005571365356,-0.001027628779411316
1702338732946787600,83.76878759765626,0.018575668334960938,-0.0019955337047576904,-0.026838645339012146
1702338733041788700,83.86378857421874,0.008255958557128906,0.016548804938793182,-0.02935720980167389
1702338733148081400,83.97008129882812,-0.020639419555664062,-0.015121027827262878,0.006571918725967407
1702338733243510000,84.06551000976563,-0.039913177490234375,-0.010080685839056969,0.004381284117698669
1702338733348887000,84.17088696289062,-0.00045490264892578125,0.01943310722708702,0.0029208511114120483
1702338733444895500,84.2668955078125,-0.000202178955078125,-0.04367019236087799,0.0012981593608856201
1702338733550883000,84.37288305664063,-0.00013446807861328125,0.023193666711449623,0.000865444540977478
1702338733646372600,84.46837255859376,0.026053428649902344,0.01546244416385889,0.0005769580602645874
1702338733752421000,84.57442114257813,0.01736927032470703,-0.015845268964767456,0.026538193225860596
1702338733847788500,84.66978857421876,0.007719993591308594,-0.04191376268863678,0.029230445623397827
1702338733953867500,84.77586743164062,0.005146980285644531,0.024364620447158813,0.019486963748931885
1702338734049143600,84.8711435546875,-0.022711753845214844,0.01624307967722416,-0.03931581974029541
1702338734154887000,84.97688696289063,-0.018808364868164062,0.03337271139025688,0.008679866790771484
1702338734250590000,85.07258984375,0.013604164123535156,-0.0039050907362252474,-0.020366981625556946
1702338734355967200,85.17796728515626,-0.017073631286621094,-0.0026033937465399504,-0.013577982783317566
1702338734452036600,85.27403662109376,-0.011382102966308594,-0.001735595753416419,-0.009051993489265442
1702338734558054700,85.3800546875,-0.03992652893066406,-0.0007713758968748152,0.01341259479522705
1702338734653452500,85.47545263671876,0.025679588317871094,-0.0005142505979165435,-0.01721183955669403
1702338734759348500,85.58134838867187,-0.03517723083496094,-0.0003428337222430855,-0.011474564671516418
1702338734854868500,85.67686840820312,-0.023451805114746094,-0.00022855581482872367,0.018503844738006592
1702338734960856000,85.78285595703124,0.033156394958496094,-0.05240871012210846,0.01694178581237793
1702338735056284700,85.87828466796876,-0.004038810729980469,-0.03493914008140564,0.011294513940811157
1702338735162150100,85.98415014648438,-0.0026922225952148438,-0.02329276129603386,0.03368324041366577
1702338735257334500,86.07933447265626,-0.009911537170410156,0.04195478931069374,0.014970317482948303
1702338735363138800,86.18513891601563,0.01953601837158203,0.001816295087337494,-0.0423269122838974
1702338735459116500,86.28111645507812,0.013024330139160156,0.027364427223801613,0.024089187383651733
1702338735565073700,86.38707373046876,-0.04361438751220703,0.01824295148253441,-0.010094106197357178
1702338735660532700,86.48253271484376,-0.0019483566284179688,-0.009327730163931847,-0.04806537926197052
1702338735766489600,86.58848950195312,0.02484416961669922,-0.006218485534191132,0.020253360271453857
1702338735861948700,86.68394873046876,0.016562461853027344,-0.004145655781030655,-0.012651324272155762
1702338735967936300,86.78993627929688,0.011041641235351562,0.023389793932437897,-0.008434221148490906
1702338736063364600,86.88536450195312,-0.03867530822753906,0.010395463556051254,-0.0037485510110855103
1702338736168650200,86.99065014648437,-0.025783538818359375,0.033083874732255936,0.0498080849647522
1702338736264628200,87.08662817382813,-0.01718902587890625,-0.030251212418079376,0.007051825523376465
1702338736370127400,87.19212744140626,0.0010814666748046875,-0.02216283790767193,-0.005583718419075012
1702338736466196700,87.28819677734376,0.026864051818847656,0.011378338560461998,0.02243107557296753
1702338736572153900,87.39415380859376,-0.008234024047851562,-0.018568005412817,0.014954045414924622
1702338736667521300,87.48952124023438,-0.031642913818359375,0.013774894177913666,0.009969353675842285
1702338736773661400,87.59566137695313,-0.014063835144042969,0.006122174672782421,-0.013004899024963379
1702338736869028900,87.69102880859376,0.04292106628417969,0.030235014855861664,-0.03482349216938019
1702338736975138300,87.79713818359374,-0.023682594299316406,-0.005996888503432274,0.00293789803981781
1702338737070444800,87.89244482421876,0.010365486145019531,-0.05630505457520485,-0.024194970726966858
1702338737176127200,87.99812719726563,0.013324737548828125,0.009846950881183147,-0.002035468816757202
1702338737271830300,88.09383032226563,0.03502655029296875,-0.019588930532336235,0.02479657530784607
1702338737377239300,88.1992392578125,0.02335071563720703,-0.03921285271644592,-0.03577607870101929
1702338737473278200,88.2952783203125,0.010377883911132812,0.008725631982088089,0.01897093653678894
1702338737579357200,88.40135717773437,0.006918907165527344,0.03197065368294716,-0.013506278395652771
1702338737674694100,88.49669409179687,-0.021531105041503906,-0.00483979657292366,-0.009004190564155579
1702338737780773400,88.6027734375,0.011789321899414062,-0.0032265298068523407,0.020150765776634216
1702338737876110000,88.69811010742187,-0.012188911437988281,-0.02758757770061493,-0.025915518403053284
1702338737982189300,88.80418920898437,0.01801776885986328,-0.018391717225313187,0.00887654721736908
1702338738077526300,88.8995263671875,-0.04028511047363281,-0.03841470927000046,0.03207126259803772
1702338738182964500,89.00496459960938,0.01696014404296875,-0.00835534930229187,-0.0031818151473999023
1702338738278911700,89.10091186523438,0.0113067626953125,0.04673689603805542,-0.0021212100982666016
1702338738385021200,89.20702124023437,0.007537841796875,0.031157929450273514,-0.0014141499996185303
1702338738480327700,89.30232763671874,0.005024909973144531,0.020771952345967293,-0.0009427666664123535
1702338738585643800,89.40764379882812,-0.050063133239746094,-0.00820373184978962,0.017016693949699402
1702338738681774300,89.5037744140625,-0.007222175598144531,0.020684409886598587,-0.040962666273117065
1702338738787853300,89.60985327148437,-0.030968666076660156,-0.012363957241177559,-0.027308449149131775
1702338738883190300,89.70519018554687,0.03165149688720703,0.017910925671458244,-0.01820562779903412
1702338738989269200,89.81126928710937,-0.020796775817871094,-0.01819315366446972,-0.02552710473537445
1702338739084606200,89.90660620117187,-0.013864517211914062,0.04017835855484009,-0.017018064856529236
1702338739189983500,90.0119833984375,0.043053627014160156,0.0006320085958577693,0.014808177947998047
1702338739285656000,90.10765600585937,0.027849197387695312,-0.043308380991220474,-0.002139836549758911
1702338739391857200,90.21385717773437,-0.033730506896972656,-0.028872255235910416,-0.0014265626668930054
1702338739487438300,90.30943823242187,0.0036668777465820312,0.006905395537614822,-0.000951036810874939
1702338739593364700,90.41536474609374,0.054741859436035156,0.030757160857319832,0.025519534945487976
1702338739688823800,90.51082373046874,0.054741859436035156,0.030757160857319832,0.025519534945487976
1702338739794017800,90.61601782226562,0.054741859436035156,0.030757160857319832,0.025519534945487976
1702338739890239700,90.71223974609374,0.054741859436035156,0.030757160857319832,0.025519534945487976
1702338739995647500,90.8176474609375,0.010340690612792969,0.030962130054831505,-0.009140536189079285
1702338740091686400,90.91368627929687,-0.0035638809204101562,-0.0002732928842306137,0.014831200242042542
1702338740197063400,91.0190634765625,0.008081436157226562,-0.00018219463527202606,-0.011037424206733704
1702338740294079000,91.11607885742187,-0.00337982177734375,0.0068905954249203205,-0.004905521869659424
1702338740398845700,91.220845703125,-0.00337982177734375,0.0068905954249203205,-0.004905521869659424
1702338740494549000,91.31654907226563,0.0186614990234375,0.01505108643323183,0.007187008857727051
1702338740600262000,91.42226196289063,0.0186614990234375,0.01505108643323183,0.007187008857727051
1702338740695934500,91.5179345703125,0.0186614990234375,0.01505108643323183,0.007187008857727051
1702338740801891300,91.62389135742187,0.0186614990234375,0.01505108643323183,0.007187008857727051
1702338740897350400,91.71935034179687,-0.02415943145751953,-0.00042329897405579686,0.020487546920776367
1702338741003276800,91.82527685546874,0.015405654907226562,-0.052495263516902924,0.01782342791557312
1702338741098797000,91.92079711914063,0.010270118713378906,-0.034996841102838516,0.011882275342941284
1702338741204113200,92.02611303710937,0.006846427917480469,-0.023331228643655777,0.00792151689529419
1702338741300151800,92.12215185546874,0.0045642852783203125,-0.015554152429103851,-0.02087254822254181
1702338741406261500,92.22826147460937,0.019460678100585938,0.02795846201479435,0.02559472620487213
1702338741501598500,92.32359838867187,-0.013169288635253906,0.01863897405564785,-0.009090423583984375
1702338741607708200,92.42970825195313,0.043517112731933594,0.012425982393324375,-0.03221385180950165
1702338741703014400,92.52501440429687,-0.04167747497558594,0.005522659048438072,-0.014317259192466736
1702338741808941000,92.63094116210938,-0.0016317367553710938,0.0036817726213485003,-0.00954483449459076
1702338741904430600,92.7264306640625,-0.0010881423950195312,0.002454515080899,0.04594390094280243
1702338742010357000,92.83235693359374,-0.0007257461547851562,0.0016363433096557856,-0.021677866578102112
1702338742105846500,92.92784643554687,0.017106056213378906,0.01816297322511673,-0.009634599089622498
1702338742211193000,93.03319311523437,-0.040892601013183594,0.01210864819586277,-0.006423071026802063
1702338742307232000,93.12923193359374,-0.027261734008789062,0.00807243213057518,0.021871507167816162
1702338742414043400,93.23604345703124,0.02274799346923828,-0.022565817460417747,0.0010028034448623657
1702338742614635500,93.43663549804687,-0.03347206115722656,-0.036182817071676254,-0.02570788562297821
1702338742710094600,93.53209448242187,0.029982566833496094,0.0020316876471042633,0.00901496410369873
1702338742816173600,93.63817358398437,-0.030257225036621094,0.018338682129979134,-0.013429060578346252
1702338742911510500,93.73351049804687,-0.020171165466308594,0.012225788086652756,-0.03509609401226044
1702338743017559000,93.83955908203124,0.012705802917480469,-0.04415660351514816,0.00274600088596344
1702338743112926500,93.93492651367187,-0.017683029174804688,0.04902295768260956,0.00183066725730896
1702338743218273300,94.04027319335937,0.035719871520996094,0.004352271556854248,0.05312076210975647
1702338743314312200,94.13631225585938,-0.02848339080810547,0.002901514293625951,-0.016893282532691956
1702338743420391200,94.24239111328124,-0.018988609313964844,0.001934342784807086,-0.011262193322181702
1702338743516369000,94.33836889648437,0.00028133392333984375,0.0008597078849561512,0.0037124305963516235
1702338743621105400,94.44310546875,0.00018787384033203125,0.0005731385899707675,0.002474948763847351
1702338743717144000,94.53914404296874,-0.02602863311767578,0.00038209237391129136,-0.02450360357761383
1702338743823253800,94.64525366210937,-0.01735210418701172,-0.02589883655309677,-0.01633574068546295
1702338743918712600,94.74071264648437,-0.025144577026367188,-0.002792738378047943,-0.007260337471961975
1702338744024425500,94.84642553710937,-0.016762733459472656,-0.0018618255853652954,-0.004840224981307983
1702338744120006700,94.94200659179687,-0.011175155639648438,-0.0012412182986736298,0.022926747798919678
1702338744225353200,95.04735327148437,-0.007450103759765625,-0.026981044560670853,0.015284493565559387
1702338744321392000,95.14339208984374,0.05770397186279297,0.04031555354595184,-0.001924753189086914
1702338744427501800,95.24950170898437,0.03846931457519531,0.026877034455537796,-0.0012831687927246094
1702338744522838800,95.3448388671875,-0.0004968643188476562,0.017918022349476814,-0.027009010314941406
1702338744628551700,95.4505517578125,-0.017656326293945312,0.01668141968548298,-0.029439717531204224
1702338744724254700,95.54625463867187,-0.011771202087402344,0.03727450966835022,0.00652708113193512
1702338744830333700,95.65233374023437,0.044449806213378906,-0.0013038904871791601,0.004351377487182617
1702338744925670700,95.74767065429687,0.029633522033691406,-0.027022823691368103,-0.02325265109539032
1702338745031688700,95.85368872070312,-0.012972831726074219,0.005425565410405397,-0.00161665678024292
1702338745127086800,95.9490869140625,-0.008648872375488281,-0.022536521777510643,-0.027231335639953613
1702338745232433400,96.05443334960937,0.020377159118652344,0.01112921629101038,-0.04429762065410614
1702338745328472300,96.15047241210938,0.013585090637207031,-0.04488765075802803,0.022765204310417175
1702338745434581800,96.25658178710937,0.006037712097167969,-0.02866792306303978,0.03627142310142517
1702338745529918700,96.35191870117187,0.004025459289550781,0.007041614502668381,0.024180948734283447
1702338745635967200,96.45796728515624,0.0026836395263671875,0.004694409668445587,-0.010032936930656433
1702338745730999000,96.5529990234375,-0.07725811004638672,-0.03278501704335213,-0.021894797682762146
1702338745837414000,96.65941381835937,-0.025351524353027344,0.030450450256466866,-0.014596536755561829
1702338745932628700,96.75462866210937,0.03539562225341797,-0.03200682997703552,-0.009731024503707886
1702338746038799400,96.86079931640624,0.049750328063964844,0.03096924163401127,0.04581977427005768
1702338746134319400,96.9563193359375,0.10056209564208984,-0.07341443747282028,0.11625057458877563
1702338746239544000,97.0615439453125,0.10056209564208984,-0.07341443747282028,0.11625057458877563
1702338746335552300,97.15755224609374,0.10056209564208984,-0.07341443747282028,0.11625057458877563
1702338746441662000,97.26366186523437,0.10056209564208984,-0.07341443747282028,0.11625057458877563
1702338746536999000,97.3589990234375,-0.1316995620727539,0.10797842592000961,-0.8116394281387329
1702338746642955800,97.46495581054687,-0.21332836151123047,0.04060337692499161,-0.7398437261581421
1702338746738445300,97.5604453125,-0.1317615509033203,0.016601387411355972,-0.7024373412132263
1702338746844341200,97.66634130859374,-0.004151344299316406,-0.07261160016059875,-0.20677626132965088
1702338746939830800,97.76183081054687,0.15413379669189453,0.17125779390335083,-0.106478750705719
1702338747045879600,97.86787963867188,0.29103946685791016,-0.021814469248056412,-0.614920973777771
1702338747141430000,97.96342993164062,-0.6741886138916016,0.44572311639785767,-0.5773159265518188
1702338747246502000,98.068501953125,0.3560018539428711,0.22392690181732178,0.13814318180084229
1702338747342632400,98.16463256835938,0.11180591583251953,0.5258511304855347,-0.9434880018234253
1702338747448642800,98.27064282226563,-0.9505786895751953,0.6957619190216064,-1.0369408130645752
1702338747544102000,98.36610180664063,-0.6232614517211914,1.0496262311935425,-1.3189184665679932
1702338747650180900,98.47218090820313,-0.42597484588623047,1.1077098846435547,-1.4441492557525635
1702338747745548300,98.56754833984375,-0.8802251815795898,1.1882717609405518,-0.05271172523498535
1702338747851596800,98.6735966796875,-0.36715126037597656,1.3256690502166748,1.5653023719787598
1702338747946933800,98.76893383789063,0.5083856582641602,1.2289636135101318,2.215104579925537
1702338748053013000,98.87501293945313,-0.25731849670410156,0.9657630920410156,3.2445485591888428
1702338748148350000,98.97034985351563,-1.7196922302246094,0.22542572021484375,4.548011779785156
1702338748253727000,99.07572705078125,-2.9456558227539062,0.0561370849609375,4.255884647369385
1702338748349735400,99.1717353515625,-3.0098114013671875,0.43491601943969727,2.8477134704589844
1702338748455814400,99.277814453125,-2.1216022968292236,0.4050154685974121,1.9716973304748535
1702338748551212300,99.37321240234375,-1.0796644687652588,0.2490854263305664,1.2830824851989746
1702338748656559000,99.47855908203125,0.2321178913116455,0.009155750274658203,-0.7032155990600586
1702338748752567300,99.5745673828125,2.1108508110046387,-0.5587663650512695,-1.6403803825378418
1702338748858677000,99.68067700195313,2.118537425994873,-1.8474254608154297,0.46501684188842773
1702338748954014000,99.77601391601563,2.636235237121582,-2.9575893878936768,0.8225741386413574
1702338749060093000,99.88209301757813,1.694725513458252,-1.8775897026062012,-2.715268611907959
1702338749155460400,99.97746044921875,1.4645438194274902,-1.2098766565322876,-3.6093733310699463
1702338749260776700,100.08277661132813,1.1228160858154297,-1.0262601375579834,-2.071511745452881
1702338749356815400,100.1788154296875,1.1878747940063477,-0.4540403485298157,-2.1341612339019775
1702338749462955500,100.28495556640625,0.38396739959716797,-0.8989357948303223,-1.8830300569534302
1702338749558262000,100.38026196289063,1.0300464630126953,-0.17041686177253723,-2.1654181480407715
1702338749664280000,100.48628002929688,-0.9137458801269531,-0.29143714904785156,-1.757424235343933
1702338749759678000,100.58167797851563,-0.4627199172973633,0.014916718006134033,-0.2406367063522339
1702338749865787600,100.68778759765625,-0.06788921356201172,0.22960999608039856,-0.8612709045410156
1702338749961094000,100.78309399414063,0.05934429168701172,-0.003827720880508423,-0.6264877319335938
1702338750067173000,100.88917309570313,0.2801532745361328,0.22757107019424438,0.5133209228515625
1702338750163364400,100.9853642578125,0.18378734588623047,0.12206418812274933,1.113800048828125
1702338750267551500,101.08955151367188,0.03883552551269531,0.049993887543678284,0.75299072265625
1702338750363559700,101.1855595703125,0.046814918518066406,0.033329255878925323,0.5229085087776184
1702338750469639000,101.29163891601563,0.010285377502441406,0.011762149631977081,0.338148295879364
1702338750565006300,101.38700634765625,0.02778148651123047,0.007841430604457855,0.22543220221996307
1702338750671543300,101.49354321289063,-0.0024042129516601562,0.005227617919445038,0.12937341630458832
1702338750766758100,101.58875805664063,0.008864402770996094,0.024409964680671692,0.11762101203203201
1702338750872837000,101.69483715820313,0.026823997497558594,0.016273312270641327,0.07841400802135468
1702338750968174000,101.79017407226563,0.017882347106933594,0.02130623161792755,0.04181864857673645
1702338751074222600,101.89622265625,-0.02991771697998047,-0.006720729172229767,0.05926133692264557
1702338751169559600,101.9915595703125,0.0009794235229492188,-0.00448048859834671,0.008125320076942444
1702338751274967300,102.09696728515625,0.0006532669067382812,0.007470361888408661,0.005416885018348694
1702338751370975500,102.1929755859375,-0.010031700134277344,-0.015934474766254425,-0.006846100091934204
1702338751477024300,102.29902416992188,0.03515148162841797,-0.0001656264066696167,0.005893290042877197
1702338751572422100,102.39442211914063,-0.028862953186035156,-0.00011041760444641113,0.014386221766471863
1702338751678470700,102.500470703125,0.022597312927246094,-0.010530970990657806,0.009590819478034973
1702338751773838000,102.59583813476563,-0.0058498382568359375,-0.007020644843578339,-0.004063472151756287
1702338751879917300,102.70191723632813,-0.014367103576660156,0.005776926875114441,-0.0027089864015579224
1702338751975284700,102.79728466796875,0.011346817016601562,0.003851287066936493,-0.0018059909343719482
1702338752081333200,102.90333325195313,0.018021583557128906,0.0025675222277641296,-0.011661350727081299
1702338752176334300,102.99833422851563,0.012014389038085938,0.0017116814851760864,-0.007774233818054199
1702338752282047200,103.10404711914063,0.012014389038085938,0.0017116814851760864,-0.007774233818054199
1702338752377964000,103.19996411132813,0.012014389038085938,0.0017116814851760864,-0.007774233818054199
1702338752484043300,103.30604321289063,0.012014389038085938,0.0017116814851760864,-0.007774233818054199
1702338752579380200,103.40138012695313,0.008009910583496094,0.0011411234736442566,-0.020868852734565735
1702338752685581300,103.50758129882813,0.005339622497558594,0.0007607489824295044,0.012230828404426575
1702338752780918300,103.60291821289063,0.0035600662231445312,0.026660732924938202,0.00815388560295105
1702338752886631200,103.70863110351563,-0.05071449279785156,0.020567066967487335,-0.013804987072944641
1702338752982425900,103.80442578125,-0.007656097412109375,-0.01244218647480011,0.04309362173080444
1702338753088413200,103.9104130859375,-0.00510406494140625,-0.03444835543632507,0.002575516700744629
1702338753183719700,104.0057197265625,-0.0034027099609375,0.003187991678714752,0.02787056565284729
1702338753289035800,104.11103588867188,-0.0015125274658203125,0.0014168843626976013,-0.005048796534538269
1702338753385013800,104.207013671875,-0.0010080337524414062,0.0009445920586585999,-0.0033658593893051147
1702338753491245300,104.31324536132813,0.02547168731689453,0.0006297305226325989,-0.002243906259536743
1702338753586612700,104.40861279296875,-0.03226184844970703,0.0002798810601234436,-0.000997290015220642
1702338753692539400,104.51453930664063,-0.021508216857910156,0.00018658488988876343,-0.0006648600101470947
1702338753787967700,104.6099677734375,0.03795814514160156,0.0001243874430656433,-0.00044323503971099854
1702338753893345000,104.71534497070313,-0.0008382797241210938,-0.026070639491081238,-0.0264388769865036
1702338753989414400,104.81141430664063,0.01705646514892578,0.023281075060367584,-0.0030327513813972473
1702338754095463000,104.917462890625,0.011370658874511719,0.015520714223384857,0.02412155270576477
1702338754190921700,105.01292163085938,0.007580757141113281,0.010347142815589905,-0.010062351822853088
1702338754296177000,105.11817700195313,0.005053520202636719,0.033051662147045135,-0.006708234548568726
1702338754392276700,105.21427685546875,0.0022459030151367188,-0.011463940143585205,0.014447495341300964
1702338754498203400,105.32020336914063,0.0014972686767578125,-0.007642626762390137,0.00963166356086731
1702338754593540400,105.41554028320313,-0.025145530700683594,-0.005095086991786957,0.032574668526649475
1702338754699375000,105.521375,0.006253242492675781,-0.03712911903858185,-0.011675938963890076
1702338754795078400,105.61707836914063,0.004168510437011719,0.027544207870960236,-0.007783964276313782
1702338754901066000,105.72306591796875,-0.02336406707763672,0.018362805247306824,-0.0051893144845962524
1702338754996494300,105.81849438476563,0.010567665100097656,0.012241870164871216,-0.003459542989730835
1702338755102482000,105.92448193359375,0.004696846008300781,0.03159439563751221,-0.027680963277816772
1702338755197879800,106.0198798828125,0.0031309127807617188,-0.005090631544589996,0.007689416408538818
1702338755303257000,106.12525708007813,-0.024056434631347656,0.022759810090065002,0.005126282572746277
1702338755399326500,106.22132641601563,-0.042191505432128906,-0.010980360209941864,0.029571086168289185
1702338755505314000,106.32731396484375,0.016112327575683594,-0.004880160093307495,-0.030436396598815918
1702338755600742400,106.42274243164063,0.010741233825683594,-0.003253437578678131,0.032006025314331055
1702338755706730000,106.52872998046875,0.007161140441894531,-0.0021689608693122864,0.021337345242500305
1702338755801792300,106.62379223632813,-0.04039955139160156,-0.018399693071842194,-0.042813703417778015
1702338755908146000,106.73014599609375,0.025363922119140625,0.013887099921703339,-0.002399072051048279
1702338756003574500,106.82557446289063,0.01690959930419922,0.009258069097995758,-0.027742773294448853
1702338756109470500,106.93147045898438,-0.014870643615722656,0.006172046065330505,0.059955328702926636
1702338756205051400,107.02705151367188,-0.02404499053955078,0.0027431324124336243,-0.00822460651397705
1702338756310367700,107.13236767578125,0.03626728057861328,0.0018287524580955505,-0.005483075976371765
1702338756406406400,107.22840649414063,0.050332069396972656,0.027372732758522034,-0.0036553889513015747
1702338756512272000,107.33427197265625,-0.01874256134033203,-0.03405863791704178,-0.002436921000480652
1702338756607822600,107.42982250976563,-0.060637474060058594,0.011016391217708588,-0.001083076000213623
1702338756713932000,107.53593212890625,0.011881828308105469,0.007344260811805725,-0.000722050666809082
1702338756809238500,107.63123852539063,0.007921218872070312,0.004896171391010284,-0.0004813671112060547
1702338756914890200,107.73689013671876,0.029664039611816406,0.010893933475017548,-0.017642870545387268
1702338757010654500,107.83265454101563,-0.006367683410644531,0.007262624800205231,-0.011761918663978577
1702338757116611600,107.93861157226563,0.021898269653320312,0.030995316803455353,0.018302112817764282
1702338757212040000,108.0340400390625,-0.011544227600097656,-0.005490019917488098,-0.013941988348960876
1702338757317447700,108.13944775390625,0.021012306213378906,0.023713551461696625,0.03738604485988617
1702338757413465900,108.2354658203125,0.014008522033691406,-0.010344527661800385,0.02492402493953705
1702338757519423000,108.34142309570312,0.009339332580566406,0.019257210195064545,-0.009537547826766968
1702338757614882000,108.43688208007812,0.006226539611816406,-0.01331542432308197,-0.0063583701848983765
1702338757720961000,108.5429609375,0.0027675628662109375,-0.005917966365814209,-0.0028259456157684326
1702338757816298000,108.63829809570312,0.0018453598022460938,-0.003945313394069672,-0.001883968710899353
1702338757922285600,108.74428564453125,0.0012302398681640625,-0.0026302114129066467,0.02489757537841797
1702338758017378300,108.83937841796875,0.0005464553833007812,-0.0011689811944961548,-0.006370112299919128
1702338758123701500,108.94570141601562,-0.051932334899902344,-0.0007793232798576355,-0.03039012849330902
1702338758219099400,109.04109936523437,-0.034621238708496094,0.02563401311635971,-0.020260080695152283
1702338758324476700,109.1464765625,0.02921581268310547,0.017089340835809708,0.01263667643070221
1702338758420546000,109.24254614257812,0.012984275817871094,0.007595263421535492,0.005616292357444763
1702338758526503200,109.34850317382812,-0.017487525939941406,-0.021090056747198105,-0.02239920198917389
1702338758621962000,109.4439619140625,0.014485359191894531,-0.014060035347938538,0.011210590600967407
1702338758728041200,109.55004125976562,0.009656906127929688,-0.009373359382152557,0.0074737221002578735
1702338758823378200,109.64537817382812,0.02172374725341797,-0.05646289139986038,0.012036114931106567
1702338758928724700,109.75072485351562,0.014482498168945312,-0.011498533189296722,0.03417763113975525
1702338759024763600,109.846763671875,-0.042641639709472656,0.018487878143787384,-0.003368481993675232
1702338759130690000,109.95268994140625,-0.018952369689941406,0.02564915269613266,0.042092159390449524
1702338759226179600,110.0481796875,-0.012635231018066406,0.01709943264722824,-0.024245694279670715
1702338759331556900,110.15355688476562,-0.008423805236816406,0.011399619281291962,-0.016163796186447144
1702338759427626200,110.24962622070312,0.020537376403808594,0.03375331312417984,-0.010775864124298096
1702338759533705200,110.35570532226562,0.026556968688964844,-0.0024342387914657593,0.02136090397834778
1702338759629042200,110.45104223632812,-0.008439064025878906,-0.0016228258609771729,-0.011912956833839417
1702338759734877200,110.55687719726562,-0.03177928924560547,-0.0010818839073181152,-0.007941976189613342
1702338759830458000,110.6524580078125,0.004967689514160156,0.02543231099843979,-0.0052946507930755615
1702338759936415200,110.75841528320312,0.0022077560424804688,0.0025853924453258514,-0.002353176474571228
1702338760031874300,110.85387426757812,0.02761554718017578,-0.024429969489574432,-0.0015687793493270874
1702338760137678600,110.9596787109375,-0.007733345031738281,-0.016286645084619522,-0.0010458528995513916
1702338760233290200,111.05529028320312,-0.012151718139648438,-0.007238507270812988,-0.0004648268222808838
1702338760338636800,111.16063671875,0.018042564392089844,-0.004825673997402191,-0.00030988454818725586
1702338760434706200,111.2567060546875,0.012028694152832031,0.022936448454856873,0.025946974754333496
1702338760540663300,111.36266333007812,-0.01812458038330078,0.015290964394807816,0.017297983169555664
1702338760636122000,111.4581220703125,0.0006628036499023438,0.015513837337493896,0.03384155035018921
1702338760742231800,111.56423168945312,0.02658557891845703,-0.015811003744602203,-0.0035925358533859253
1702338760837538300,111.65953833007812,-0.008419990539550781,0.015612892806529999,-0.05469198524951935
1702338760944258300,111.76625830078125,-0.003742218017578125,0.024374771863222122,-0.0068786293268203735
1702338761145002800,111.96700268554687,-0.01909923553466797,-0.03275604173541069,-0.0030571669340133667
1702338761240339700,112.06233959960937,0.013421058654785156,-0.02183736115694046,-0.002038106322288513
1702338761345411800,112.16741186523437,0.005965232849121094,-0.009705491364002228,-0.0009058266878128052
1702338761441786400,112.26378637695312,0.0039768218994140625,0.01968323439359665,-0.05290083587169647
1702338761547743200,112.3697431640625,0.028794288635253906,-0.013031408190727234,0.017039909958839417
1702338761643202300,112.46520239257812,-0.006947517395019531,-0.008687607944011688,-0.014793619513511658
1702338761749281300,112.57128125,0.023055076599121094,-0.012579016387462616,0.02828630805015564
1702338761844618200,112.6666181640625,0.015370368957519531,0.01776755228638649,0.01885753870010376
1702338761950575400,112.77257543945312,-0.01589679718017578,-0.014308527112007141,0.01257169246673584
1702338762046370000,112.8683701171875,-0.015779495239257812,-0.0063593462109565735,0.005587413907051086
1702338762152021800,112.97402172851562,-0.036673545837402344,-0.004239566624164581,0.02987849712371826
1702338762247420000,113.069419921875,-0.02444934844970703,-0.002826377749443054,-0.00623457133769989
1702338762352797000,113.174796875,0.03599739074707031,0.050422877073287964,0.021997183561325073
1702338762448866300,113.2708662109375,-0.03629779815673828,-0.02117910608649254,-0.0076591819524765015
1702338762554854000,113.37685400390625,0.028098106384277344,-0.014119401574134827,-0.031249508261680603
1702338762650282500,113.47228247070312,0.028098106384277344,-0.014119401574134827,-0.031249508261680603
1702338762756269800,113.57826977539062,0.028098106384277344,-0.014119401574134827,-0.031249508261680603
1702338762851698400,113.67369848632812,0.028098106384277344,-0.014119401574134827,-0.031249508261680603
1702338762957686000,113.77968603515625,0.028098106384277344,-0.014119401574134827,-0.031249508261680603
1702338763053114400,113.8751142578125,0.028098106384277344,-0.014119401574134827,-0.031249508261680603
1702338763159224000,113.98122412109375,0.028098106384277344,-0.014119401574134827,-0.031249508261680603
1702338763254499800,114.07649975585937,0.028098106384277344,-0.014119401574134827,-0.031249508261680603
1702338763359877000,114.18187719726562,-0.0074214935302734375,-0.03555632382631302,0.018382087349891663
1702338763455946500,114.27794653320312,-0.004947662353515625,-0.010632514953613281,-0.0008169710636138916
1702338763561934000,114.38393408203125,-0.02944183349609375,-0.020160041749477386,-0.01361633837223053
1702338763657362400,114.47936254882812,-0.006556510925292969,0.025785230100154877,0.01706583797931671
1702338763763350000,114.58535009765625,-0.030524253845214844,0.017190150916576385,-0.0016944706439971924
1702338763858778400,114.6807783203125,-0.020349502563476562,-0.0016217678785324097,0.02502390742301941
1702338763964827100,114.7868271484375,0.012587547302246094,-0.0010811761021614075,-0.009470954537391663
1702338764060164000,114.8821640625,0.021463394165039062,-0.013792477548122406,-0.04553923010826111
1702338764165632800,114.9876328125,0.0012369155883789062,-0.009194985032081604,0.021937474608421326
1702338764261580000,115.083580078125,0.013895988464355469,-0.03228355199098587,0.014624983072280884
1702338764366987800,115.18898779296875,0.009263992309570312,0.004631198942661285,0.022831857204437256
1702338764463026400,115.2850263671875,0.019257545471191406,-0.03613779693841934,-0.010932326316833496
1702338767790632700,118.6126328125,-0.0681161880493164,-0.02054571360349655,0.02608342468738556
1702338768289719600,119.11171948242188,0.030495643615722656,-0.00003024190664291382,-0.04705347120761871
1702338768395158000,119.21715795898437,0.030495643615722656,-0.00003024190664291382,-0.04705347120761871
1702338768491318800,119.31331884765625,0.007258415222167969,-0.013091854751110077,0.007856279611587524
1702338768596574000,119.41857397460937,0.030992507934570312,-0.008727900683879852,0.01831938326358795
1702338783702500400,134.52450024414063,0.0076580047607421875,0.0066213831305503845,-0.025838926434516907
1702338784508162800,135.33016284179686,-0.012259483337402344,0.03392283618450165,0.002514287829399109
1702338784604629000,135.42662890625,-0.012259483337402344,0.03392283618450165,0.002514287829399109
1702338784709853700,135.53185375976562,-0.04739856719970703,0.0226152241230011,0.027819588780403137
1702338785410079500,136.23207958984375,0.0009698867797851562,0.022483132779598236,0.006303027272224426
1702338785515182000,136.33718212890625,0.013718605041503906,0.01498875766992569,0.004202023148536682
1702338785611678500,136.43367846679686,0.013718605041503906,0.01498875766992569,0.004202023148536682
1702338785716933600,136.53893359375,0.013718605041503906,0.01498875766992569,0.004202023148536682
1702338785813094700,136.6350947265625,0.013718605041503906,0.01498875766992569,0.004202023148536682
1702338785918227700,136.74022778320312,0.013718605041503906,0.01498875766992569,0.004202023148536682
1702338786014510600,136.83651049804686,0.048371315002441406,0.009992502629756927,-0.06256730854511261
1702338786618575600,137.44057568359375,0.007588386535644531,-0.0008447915315628052,-0.006140664219856262
1702338786724013800,137.54601391601562,0.007588386535644531,-0.0008447915315628052,-0.006140664219856262
1702338786820174600,137.64217456054686,0.020745277404785156,-0.02147790789604187,-0.025008484721183777
1702338786925429800,137.7474296875,-0.01755237579345703,0.006596110761165619,0.004242390394210815
1702338787021590500,137.84359057617186,0.030138015747070312,0.004397407174110413,0.002828255295753479
1702338787126845700,137.948845703125,0.041016578674316406,0.0029316022992134094,-0.008571848273277283
1702338787223006700,138.0450068359375,0.006419181823730469,0.001954399049282074,-0.02663944661617279
1702338787328262000,138.15026196289062,0.004279136657714844,0.03268517553806305,0.01362261176109314
1702338787424422700,138.24642260742186,0.004279136657714844,0.03268517553806305,0.01362261176109314
1702338787529372700,138.35137255859374,0.004279136657714844,0.03268517553806305,0.01362261176109314
1702338787625838600,138.44783862304686,0.004279136657714844,0.03268517553806305,0.01362261176109314
1702338787730758100,138.5527580566406,0.029006004333496094,0.016561437398195267,0.03523530066013336
1702338787827254800,138.6492548828125,-0.006815910339355469,0.011040959507226944,0.023490190505981445
1702338787932510000,138.75451000976562,-0.004544258117675781,0.007360640913248062,-0.010493442416191101
1702338788028670700,138.85067065429686,-0.0030298233032226562,-0.047400034964084625,-0.006995633244514465
1702338788536605200,139.35860522460936,-0.013869285583496094,-0.000318773090839386,-0.002760365605354309
1702338788632949200,139.45494921875,-0.013869285583496094,-0.000318773090839386,-0.002760365605354309
1702338788739028500,139.56102856445312,-0.009245872497558594,-0.00021251291036605835,-0.001840248703956604
1702338788834365400,139.65636547851562,0.030755043029785156,0.017341259866952896,0.03405351936817169
1702338788940444400,139.7624443359375,0.02050304412841797,0.011560838669538498,0.022702336311340332
1702338789035781400,139.85778149414062,0.013669013977050781,-0.018446337431669235,-0.011018678545951843
1702338789141769000,139.96376904296875,0.009112358093261719,-0.012297555804252625,-0.0334993451833725
1702338789237166800,140.05916674804686,0.06507205963134766,0.04684154689311981,-0.041031986474990845
1702338789342544100,140.16454418945312,-0.008925437927246094,-0.02107943221926689,-0.0012112706899642944
1702338789438613200,140.26061328125,-0.03209400177001953,-0.01405295729637146,-0.0008075088262557983
1702338789544173600,140.36617358398436,0.011879920959472656,-0.006245754659175873,0.02579466998577118
1702338789640029400,140.46202954101562,-0.04437732696533203,0.021989725530147552,-0.008957117795944214
1702338789746108400,140.5681083984375,-0.0034313201904296875,-0.011493749916553497,0.02018214762210846
1702338789841353700,140.6633537597656,-0.0022878646850585938,-0.007662497460842133,-0.03884218633174896
1702338789947402500,140.76940258789062,-0.009731292724609375,0.022748008370399475,0.00016573071479797363
1702338790042861300,140.864861328125,0.01965618133544922,-0.010988228023052216,0.00011049211025238037
1702338790148788000,140.9707880859375,0.03925800323486328,0.04498164355754852,0.00007365643978118896
1702338790244125000,141.066125,-0.026124954223632812,0.003834199160337448,0.00004909932613372803
1702338790349532700,141.17153271484375,-0.046479225158691406,-0.03316733241081238,0.000021830201148986816
1702338790445693400,141.267693359375,-0.03098583221435547,0.0301955733448267,0.00001455843448638916
1702338790551650600,141.37365063476562,-0.02065753936767578,-0.006023183465003967,0.000009700655937194824
1702338790646773800,141.4687736816406,0.02568340301513672,-0.02011268213391304,-0.00871354341506958
1702338790753188600,141.57518872070312,0.017122268676757812,-0.013408452272415161,-0.005809023976325989
1702338790848525600,141.67052563476562,-0.040882110595703125,-0.008938968181610107,0.022280871868133545
1702338790954635000,141.7766350097656,0.02504253387451172,-0.005959309637546539,-0.011299654841423035
1702338791049941500,141.87194140625,0.019845008850097656,0.014787126332521439,-0.013739928603172302
1702338791155929000,141.97792919921875,0.013230323791503906,0.009858082979917526,-0.009159952402114868
1702338791251327000,142.07332690429686,-0.04347705841064453,-0.04573507606983185,-0.006106629967689514
1702338791356734700,142.1787346191406,-0.0028314590454101562,-0.030490048229694366,-0.030214473605155945
1702338791452773600,142.27477368164062,0.024885177612304688,0.0038845762610435486,-0.06573578715324402
1702338791558761000,142.3807609863281,-0.009552955627441406,0.0025897175073623657,-0.017670296132564545
1702338792459640000,143.28164013671875,0.013552665710449219,-0.0008421353995800018,0.013174176216125488
1702338792564956200,143.3869560546875,0.013552665710449219,-0.0008421353995800018,0.013174176216125488
1702338792661117000,143.48311694335936,0.009035110473632812,0.0308309905230999,-0.0016847401857376099
1702338792766494200,143.588494140625,-0.046273231506347656,-0.010838422924280167,0.009334191679954529
1702338792862655200,143.6846552734375,0.021448135375976562,0.0032419152557849884,-0.014691919088363647
1702338792967910100,143.78991015625,-0.017083168029785156,-0.01876360923051834,0.0006627440452575684
1702338793064071200,143.8860712890625,-0.017083168029785156,-0.01876360923051834,0.0006627440452575684
1702338793169234700,143.9912346191406,-0.017083168029785156,-0.01876360923051834,0.0006627440452575684
1702338793265487000,144.08748706054686,-0.017083168029785156,-0.01876360923051834,0.0006627440452575684
1702338793370711800,144.1927119140625,-0.017083168029785156,-0.01876360923051834,0.0006627440452575684
1702338793466903000,144.28890307617186,0.03076457977294922,-0.008339382708072662,0.0002945512533187866
1702338793572158200,144.394158203125,-0.0056438446044921875,-0.005559585988521576,0.00019636750221252441
1702338793668319200,144.4903193359375,-0.029906272888183594,-0.0037063881754875183,-0.02601248025894165
1702338793773879600,144.59587963867187,-0.02200603485107422,-0.0016472861170768738,0.01458229124546051
1702338793869735200,144.69173510742186,0.011472702026367188,-0.0010981932282447815,0.009721532464027405
1702338793974959900,144.7969599609375,0.033802032470703125,-0.00073213130235672,0.0064810216426849365
1702338794071120600,144.89312060546874,-0.0036191940307617188,-0.02664165198802948,0.004320681095123291
1702338794176375800,144.99837573242186,0.007105827331542969,0.014312826097011566,-0.0067975521087646484
1702338794272567300,145.0945673828125,0.004736900329589844,-0.016611680388450623,-0.004531696438789368
1702338794377944300,145.1999443359375,-0.022985458374023438,0.015079110860824585,-0.029164522886276245
1702338794474047700,145.2960478515625,-0.015323638916015625,0.010052740573883057,-0.04559657722711563
1702338794580096300,145.40209619140626,0.0193328857421875,0.030621446669101715,0.02331395447254181
1702338794675433200,145.49743310546876,0.012888908386230469,-0.005739264190196991,0.015542641282081604
1702338794781512200,145.60351220703126,0.008592605590820312,-0.0038261786103248596,-0.015781626105308533
1702338794876513500,145.69851342773438,-0.013609886169433594,-0.0017005279660224915,0.010414868593215942
1702338794982898000,145.80489794921874,0.01706981658935547,-0.0011336877942085266,0.006943240761756897
1702338795078295800,145.9002958984375,-0.040917396545410156,0.02539777010679245,0.004628822207450867
1702338795183612000,146.00561181640626,-0.0011243820190429688,-0.009221717715263367,0.02923944592475891
1702338795279650800,146.10165087890624,0.008217811584472656,0.004619311541318893,-0.004440397024154663
1702338795385668900,146.2076689453125,-0.020674705505371094,0.003079541027545929,0.023193299770355225
1702338795481097200,146.30309716796876,0.038514137268066406,0.002053026109933853,-0.010691359639167786
1702338795587207000,146.40920703125,0.02567577362060547,0.027522247284650803,-0.0071275681257247925
1702338795682421800,146.504421875,0.020125389099121094,-0.022639308124780655,-0.011885657906532288
1702338795788592400,146.61059228515626,0.013417243957519531,-0.015092872083187103,-0.00792376697063446
1702338795883929300,146.70592944335937,0.03509807586669922,0.01609164848923683,-0.005282506346702576
1702338795989611800,146.81161181640624,-0.0018367767333984375,-0.02771957591176033,-0.045930273830890656
1702338796085345300,146.90734521484376,-0.001224517822265625,-0.018479716032743454,0.02167677879333496
1702338796190692000,147.01269213867187,-0.00081634521484375,0.013833753764629364,-0.011692211031913757
1702338796286730800,147.10873071289063,0.02560901641845703,-0.016931060701608658,0.018348589539527893
1702338796392657400,147.21465747070312,-0.014771461486816406,-0.03367847949266434,0.00815492868423462
1702338796488177400,147.31017749023437,-0.009847640991210938,0.02985481172800064,0.005436614155769348
1702338796594256400,147.41625634765626,-0.006565093994140625,-0.006250359117984772,0.0036244094371795654
1702338796689563000,147.51156298828124,-0.05667400360107422,-0.00416690856218338,0.02856983244419098
1702338796794848500,147.6168486328125,0.027108192443847656,0.024301603436470032,-0.0047380030155181885
1702338796890978800,147.71297875976563,0.018072128295898438,0.016201067715883255,-0.003158673644065857
1702338796997119000,147.81911889648438,-0.014095306396484375,-0.015352852642536163,-0.0021057873964309692
1702338797197802500,148.01980249023438,0.016157150268554688,-0.004548989236354828,-0.0006239265203475952
1702338797293811000,148.11581103515624,-0.015372276306152344,-0.0030326619744300842,-0.0004159510135650635
1702338797399951000,148.221951171875,-0.010248184204101562,0.024131789803504944,-0.00027729570865631104
1702338797495257300,148.31725732421876,-0.013269424438476562,-0.006710469722747803,-0.00012324750423431396
1702338797601336600,148.42333666992187,0.017296791076660156,0.021679915487766266,-0.00008216500282287598
1702338797696704000,148.5187041015625,0.011530876159667969,-0.011700287461280823,-0.000054776668548583984
1702338797802783000,148.62478295898438,0.007687568664550781,-0.007800191640853882,0.02611704170703888
