time,seconds_elapsed,z,y,x
1702338674342991600,0.22499169921875,8.547225952148438,0.305938720703125,7.2879791259765625
1702338674447087000,0.329087158203125,8.328277587890625,1.466461181640625,5.7249908447265625
1702338674551152000,0.433152099609375,10.371261596679688,1.054901123046875,4.15985107421875
1702338674655247600,0.53724755859375,9.599349975585938,2.1840667724609375,2.051055908203125
1702338674759343000,0.641343017578125,9.088958740234375,3.734375,0.7905120849609375
1702338674863407900,0.745407958984375,8.157196044921875,4.1698760986328125,0.343536376953125
1702338674967503400,0.84950341796875,10.140838623046875,3.0292205810546875,0.0690765380859375
1702338675071538000,0.953537841796875,8.570907592773438,4.18829345703125,-1.637725830078125
1702338675175602700,1.057602783203125,8.877670288085938,5.521820068359375,-4.3028411865234375
1702338675279667700,1.161667724609375,5.051544189453125,6.6361541748046875,-0.777496337890625
1702338675383763200,1.26576318359375,6.52886962890625,6.781402587890625,-0.5587921142578125
1702338675487858700,1.369858642578125,7.29864501953125,6.308807373046875,-1.9597930908203125
1702338675591954200,1.4739541015625,7.93896484375,3.874603271484375,-2.2531585693359375
1702338675696049700,1.578049560546875,9.128433227539062,1.3666839599609375,-2.7685699462890625
1702338675800175600,1.682175537109375,10.5181884765625,0.6045684814453125,-0.338653564453125
1702338675904301600,1.786301513671875,8.580963134765625,2.2455596923828125,-0.678924560546875
1702338676008458000,1.8904580078125,9.521102905273438,0.564849853515625,-2.2108001708984375
1702338676112553500,1.994553466796875,8.74725341796875,0.15423583984375,-4.4942779541015625
1702338676216679400,2.098679443359375,8.860443115234375,0.1956329345703125,-5.5296478271484375
1702338676320775000,2.20277490234375,8.985580444335938,0.0003814697265625,-4.5344696044921875
1702338676424931300,2.306931396484375,8.4144287109375,0.41888427734375,-3.6881256103515625
1702338676529026800,2.41102685546875,10.622512817382812,-0.0314483642578125,-3.16937255859375
1702338676633183500,2.51518359375,10.849838256835938,-0.5528411865234375,-0.6468505859375
1702338676737309400,2.619309326171875,13.835601806640625,0.11187744140625,-1.9705657958984375
1702338676841435400,2.723435302734375,10.125289916992188,0.1281585693359375,-0.1924591064453125
1702338676945561300,2.827561279296875,9.879791259765625,0.0814971923828125,0.1190948486328125
1702338677049687300,2.931687255859375,9.881454467773438,0.0824432373046875,0.13177490234375
1702338677153782800,3.03578271484375,9.870697021484375,0.083404541015625,0.1343994140625
1702338677257939200,3.139939208984375,9.877395629882812,0.0771942138671875,0.1291351318359375
1702338677362065200,3.244065185546875,9.873321533203125,0.08221435546875,0.1288909912109375
1702338677466191000,3.348191162109375,9.893661499023438,0.079345703125,0.1320037841796875
1702338677570317000,3.452317138671875,9.901077270507812,0.0633087158203125,0.128662109375
1702338677674473700,3.5564736328125,9.889114379882812,0.05828857421875,0.13128662109375
1702338677778599700,3.660599609375,9.89031982421875,0.0697784423828125,0.1281890869140625
1702338677882725600,3.7647255859375,9.870208740234375,0.0860443115234375,0.1334381103515625
1702338677986821000,3.868821044921875,9.87188720703125,0.0826873779296875,0.1262664794921875
1702338678090947000,3.972947021484375,9.875228881835938,0.0824432373046875,0.1231536865234375
1702338678195073000,4.077072998046875,9.881942749023438,0.0649871826171875,0.123870849609375
1702338678299199000,4.181198974609375,9.882171630859375,0.0709686279296875,0.130340576171875
1702338678403325000,4.285324951171875,9.889602661132812,0.06976318359375,0.1288909912109375
1702338678507420400,4.38942041015625,9.887435913085938,0.068572998046875,0.12554931640625
1702338678611546400,4.49354638671875,9.8685302734375,0.0769500732421875,0.12603759765625
1702338678715672300,4.59767236328125,9.863265991210938,0.08819580078125,0.123870849609375
1702338678819829000,4.7018291015625,9.86614990234375,0.079345703125,0.121002197265625
1702338678923955000,4.805954833984375,9.881698608398438,0.071685791015625,0.1226806640625
1702338679028081000,4.910080810546875,9.889602661132812,0.0630645751953125,0.1322479248046875
1702338679132206800,5.014206787109375,9.881698608398438,0.077667236328125,0.129852294921875
1702338679236332800,5.118332763671875,9.8809814453125,0.074310302734375,0.1214752197265625
1702338679340489200,5.2224892578125,9.891265869140625,0.0680999755859375,0.1231536865234375
1702338679444615200,5.326615234375,9.885528564453125,0.074310302734375,0.1265106201171875
1702338679548741000,5.4307412109375,9.886245727539062,0.06402587890625,0.1245880126953125
1702338679652867300,5.534867431640625,9.867340087890625,0.071685791015625,0.12506103515625
1702338679756993300,5.6389931640625,9.865188598632812,0.080291748046875,0.1229095458984375
1702338679861119200,5.743119140625,9.873077392578125,0.08245849609375,0.1288909912109375
1702338679965275600,5.847275634765625,9.863037109375,0.0800628662109375,0.11981201171875
1702338680069401600,5.951401611328125,9.884567260742188,0.0724029541015625,0.1322479248046875
1702338680173527600,6.055527587890625,9.872848510742188,0.0731201171875,0.128173828125
1702338680277623000,6.159623046875,9.879302978515625,0.0783843994140625,0.1291351318359375
1702338680381749000,6.2637490234375,9.894149780273438,0.0633087158203125,0.1274566650390625
1702338680485875000,6.367875,9.879776000976562,0.068572998046875,0.1250762939453125
1702338680614232000,6.496232177734375,9.864715576171875,0.0733642578125,0.1205291748046875
1702338680714940000,6.59693994140625,9.873565673828125,0.077667236328125,0.115020751953125
1702338680819065900,6.70106591796875,9.883377075195312,0.0692901611328125,0.11932373046875
1702338680923161300,6.805161376953125,9.873321533203125,0.074798583984375,0.1229095458984375
1702338681027287300,6.909287353515625,9.874526977539062,0.0778961181640625,0.1260223388671875
1702338681131413200,7.013413330078125,9.86566162109375,0.07598876953125,0.1186065673828125
1702338681235539500,7.11753955078125,9.877395629882812,0.074554443359375,0.1262664794921875
1702338681340580900,7.222580810546875,9.88360595703125,0.068328857421875,0.1190948486328125
1702338681444615200,7.326615234375,9.87164306640625,0.071197509765625,0.11981201171875
1702338681547917300,7.429917236328125,9.872604370117188,0.0798187255859375,0.1219635009765625
1702338681652043300,7.534043212890625,9.872848510742188,0.0771942138671875,0.1214752197265625
1702338681756169200,7.638169189453125,9.874282836914062,0.0752716064453125,0.1229248046875
1702338681860295200,7.742295166015625,9.891754150390625,0.07647705078125,0.1226806640625
1702338681964390700,7.846390625,9.890304565429688,0.080780029296875,0.1291351318359375
1702338682068547000,7.950547119140625,9.879547119140625,0.0771942138671875,0.11981201171875
1702338682172673000,8.054673095703125,9.872360229492188,0.0786285400390625,0.1212310791015625
1702338682278782700,8.16078271484375,9.8807373046875,0.0843658447265625,0.129852294921875
1702338682380955600,8.26295556640625,9.873321533203125,0.0781402587890625,0.1279449462890625
1702338682485905700,8.36790576171875,9.87811279296875,0.0757598876953125,0.1308135986328125
1702338682590825000,8.472824951171875,9.873321533203125,0.077911376953125,0.1320037841796875
1702338682693364000,8.575364013671875,9.87762451171875,0.0791015625,0.1288909912109375
1702338682798344400,8.680344482421875,9.882171630859375,0.0850830078125,0.13153076171875
1702338682901646600,8.783646484375,9.881454467773438,0.068572998046875,0.126983642578125
1702338683005772500,8.8877724609375,9.88409423828125,0.068572998046875,0.133209228515625
1702338683109929000,8.991928955078125,9.88409423828125,0.0752716064453125,0.13128662109375
1702338683214055000,9.096054931640625,9.874755859375,0.0755157470703125,0.126983642578125
1702338683318180900,9.200180908203125,9.867568969726562,0.0767059326171875,0.129852294921875
1702338683422276400,9.3042763671875,9.876190185546875,0.071441650390625,0.127227783203125
1702338683526432800,9.408432861328125,9.882171630859375,0.0731201171875,0.128662109375
1702338683632089600,9.514089599609376,9.86566162109375,0.0724029541015625,0.13153076171875
1702338683734720300,9.61672021484375,9.870452880859375,0.0783843994140625,0.128662109375
1702338683839792400,9.72179248046875,9.882415771484375,0.0800628662109375,0.1221923828125
1702338683944559000,9.82655908203125,9.875244140625,0.0850830078125,0.1279449462890625
1702338684047128800,9.92912890625,9.870452880859375,0.0814971923828125,0.126739501953125
1702338684152048000,10.034048095703126,9.883377075195312,0.0709686279296875,0.1274566650390625
1702338684257028600,10.139028564453126,9.888397216796875,0.074310302734375,0.1322479248046875
1702338684359537200,10.241537109375,9.879302978515625,0.0798187255859375,0.1334381103515625
1702338684464578800,10.346578857421875,9.873565673828125,0.0661773681640625,0.132965087890625
1702338684569345500,10.451345458984376,9.886489868164062,0.07598876953125,0.1262664794921875
1702338684671945700,10.55394580078125,9.876678466796875,0.0826873779296875,0.124359130859375
1702338684776895700,10.658895751953125,9.880264282226562,0.080291748046875,0.11981201171875
1702338684881815000,10.76381494140625,9.88958740234375,0.0743255615234375,0.1277008056640625
1702338684984354000,10.86635400390625,9.89007568359375,0.06689453125,0.1226806640625
1702338685088480000,10.97047998046875,9.882171630859375,0.0676116943359375,0.1257781982421875
1702338685192575500,11.074575439453126,9.88409423828125,0.0678558349609375,0.126739501953125
1702338685296701400,11.178701416015626,9.873794555664062,0.0800628662109375,0.1343994140625
1702338685401712600,11.283712646484375,9.881942749023438,0.083648681640625,0.1274566650390625
1702338685506876200,11.388876220703125,9.87237548828125,0.0798187255859375,0.129608154296875
1702338685609079600,11.49107958984375,9.88671875,0.066650390625,0.126739501953125
1702338685713205500,11.59520556640625,9.874755859375,0.074554443359375,0.1308135986328125
1702338685817331500,11.69933154296875,9.878341674804688,0.08197021484375,0.1229095458984375
1702338685921488000,11.80348779296875,9.88983154296875,0.0609130859375,0.1310577392578125
1702338686025583400,11.907583251953126,9.888641357421875,0.062347412109375,0.1277008056640625
1702338686129709300,12.011709228515626,9.876678466796875,0.074554443359375,0.1262664794921875
1702338686233835300,12.115835205078126,9.886245727539062,0.0771942138671875,0.128662109375
1702338686337961200,12.219961181640626,9.876678466796875,0.0733642578125,0.123626708984375
1702338686442087200,12.324087158203126,9.867095947265625,0.077423095703125,0.12579345703125
1702338686546213400,12.42821337890625,9.87213134765625,0.077667236328125,0.128662109375
1702338686650339300,12.53233935546875,9.88409423828125,0.0743255615234375,0.133209228515625
1702338686754465300,12.63646533203125,9.880020141601562,0.0750274658203125,0.1288909912109375
1702338686858591200,12.74059130859375,9.861602783203125,0.077911376953125,0.123626708984375
1702338686962686700,12.844686767578125,9.876907348632812,0.0812530517578125,0.1245880126953125
1702338687066812700,12.948812744140625,9.861831665039062,0.0826873779296875,0.126739501953125
1702338687170938600,13.052938720703125,9.875961303710938,0.077423095703125,0.1262664794921875
1702338687275064600,13.157064697265625,9.869491577148438,0.0829315185546875,0.12506103515625
1702338687379221000,13.261220947265626,9.8685302734375,0.077667236328125,0.117889404296875
1702338687483347000,13.365346923828126,9.870697021484375,0.0781402587890625,0.1245880126953125
1702338687587473200,13.46947314453125,9.885772705078125,0.07574462890625,0.132720947265625
1702338687691599000,13.57359912109375,9.8687744140625,0.0826873779296875,0.12841796875
1702338687795725000,13.67772509765625,9.894851684570312,0.06427001953125,0.1250762939453125
1702338687899851000,13.78185107421875,9.88360595703125,0.071685791015625,0.1336822509765625
1702338688004007400,13.88600732421875,9.87237548828125,0.0738372802734375,0.12579345703125
1702338688108133400,13.99013330078125,9.887924194335938,0.077667236328125,0.1310577392578125
1702338688212259300,14.09425927734375,9.871170043945312,0.077423095703125,0.128662109375
1702338688316385300,14.19838525390625,9.864471435546875,0.0812530517578125,0.1197967529296875
1702338688420542000,14.3025419921875,9.873077392578125,0.0752716064453125,0.1262664794921875
1702338688524668000,14.40666796875,9.876907348632812,0.0769500732421875,0.12841796875
1702338688628793900,14.5107939453125,9.876434326171875,0.071685791015625,0.128662109375
1702338688732950300,14.6149501953125,9.86590576171875,0.0800628662109375,0.123626708984375
1702338688837076200,14.719076171875,9.86590576171875,0.075042724609375,0.1305694580078125
1702338688941202200,14.8232021484375,9.892227172851562,0.0704803466796875,0.1245880126953125
1702338689045358800,14.92735888671875,9.90203857421875,0.06427001953125,0.1217193603515625
1702338689172220400,15.054220458984375,9.891738891601562,0.0611572265625,0.12579345703125
1702338689414876700,15.296876708984374,9.8328857421875,0.071441650390625,0.1322479248046875
1702338689515584800,15.397584716796874,9.843536376953125,0.0722808837890625,0.13763427734375
1702338689616292600,15.498292724609374,9.846282958984375,0.071929931640625,0.130340576171875
1702338689717000700,15.599000732421874,9.839828491210938,0.074798583984375,0.1335601806640625
1702338689817739300,15.6997392578125,9.834793090820312,0.0765838623046875,0.130218505859375
1702338689918447400,15.800447265625,9.834320068359375,0.0678558349609375,0.123992919921875
1702338690019185700,15.901185546875,9.832412719726562,0.0706024169921875,0.121124267578125
1702338690119924200,16.00192431640625,9.842819213867188,0.0703582763671875,0.127227783203125
1702338690220662800,16.102662841796874,9.842575073242188,0.0696563720703125,0.124359130859375
1702338690321371000,16.203370849609374,9.82989501953125,0.0722808837890625,0.1369171142578125
1702338690422109400,16.304109375,9.839950561523438,0.06988525390625,0.1343994140625
1702338690522817300,16.4048173828125,9.8505859375,0.071197509765625,0.126861572265625
1702338690623525400,16.505525390625,9.84771728515625,0.07574462890625,0.128662109375
1702338690724294400,16.60629443359375,9.841140747070312,0.0710906982421875,0.1292572021484375
1702338690825002500,16.70700244140625,9.840667724609375,0.0692901611328125,0.1189727783203125
1702338690925771500,16.807771484375,9.844619750976562,0.0726470947265625,0.132598876953125
1702338691026510000,16.908510009765624,9.840896606445312,0.071319580078125,0.13787841796875
1702338691127248600,17.00924853515625,9.833724975585938,0.07025146484375,0.1235198974609375
1702338691227987000,17.109987060546874,9.8330078125,0.065338134765625,0.126983642578125
1702338691328725500,17.2107255859375,9.85369873046875,0.0691680908203125,0.1275787353515625
1702338691429464000,17.311464111328124,9.845565795898438,0.0726470947265625,0.134521484375
1702338691530233000,17.412233154296874,9.840423583984375,0.0679779052734375,0.136322021484375
1702338691630941200,17.512941162109374,9.845687866210938,0.0740814208984375,0.1222076416015625
1702338691731710200,17.613710205078124,9.834915161132812,0.0659332275390625,0.1247100830078125
1702338691832448800,17.71444873046875,9.839462280273438,0.0695343017578125,0.1341552734375
1702338691933187300,17.815187255859374,9.834686279296875,0.0708465576171875,0.1277008056640625
1702338692033926000,17.91592578125,9.833969116210938,0.0768280029296875,0.129852294921875
1702338692134664200,18.016664306640624,9.850479125976562,0.0721588134765625,0.127105712890625
1702338692235402800,18.11740283203125,9.838272094726562,0.068328857421875,0.12554931640625
1702338692336141300,18.218141357421874,9.838150024414062,0.074432373046875,0.1336822509765625
1702338692436849400,18.318849365234374,9.843170166015625,0.07037353515625,0.1339263916015625
1702338692537588000,18.419587890625,9.853469848632812,0.074676513671875,0.1295013427734375
1702338692638326500,18.520326416015624,9.83551025390625,0.0725250244140625,0.13165283203125
1702338692739034400,18.621034423828124,9.847244262695312,0.0679779052734375,0.1192169189453125
1702338692839773000,18.72177294921875,9.84185791015625,0.068695068359375,0.127349853515625
1702338692940511500,18.822511474609374,9.836837768554688,0.0728759765625,0.1249542236328125
1702338693041219600,18.923219482421874,9.85357666015625,0.071319580078125,0.13177490234375
1702338693141958000,19.0239580078125,9.84185791015625,0.07000732421875,0.1280670166015625
1702338693242666000,19.124666015625,9.851318359375,0.0737152099609375,0.124237060546875
1702338693343435000,19.22543505859375,9.84820556640625,0.0712127685546875,0.1323699951171875
1702338693444173600,19.326173583984374,9.84161376953125,0.0709686279296875,0.126983642578125
1702338693544912100,19.426912109375,9.846649169921875,0.06964111328125,0.123748779296875
1702338693645609000,19.52760888671875,9.844253540039062,0.071441650390625,0.1247100830078125
1702338693746347500,19.628347412109374,9.850830078125,0.07037353515625,0.1292572021484375
1702338693847086000,19.729086181640625,9.842575073242188,0.07025146484375,0.120758056640625
1702338693947824600,19.82982470703125,9.858489990234375,0.0731201171875,0.126739501953125
1702338694048563200,19.930563232421875,9.847000122070312,0.0753936767578125,0.136077880859375
1702338694149271000,20.03127099609375,9.846405029296875,0.07611083984375,0.1322479248046875
1702338694249979100,20.131979248046875,9.843048095703125,0.07037353515625,0.1249542236328125
1702338694350717700,20.2327177734375,9.847000122070312,0.0764617919921875,0.122802734375
1702338694451425800,20.33342578125,9.849151611328125,0.0725250244140625,0.13177490234375
1702338694552133600,20.434133544921874,9.8447265625,0.0740814208984375,0.11956787109375
1702338694652872200,20.5348720703125,9.845321655273438,0.0680999755859375,0.129852294921875
1702338694753610800,20.63561083984375,9.84173583984375,0.07025146484375,0.1310577392578125
1702338694854318800,20.73631884765625,9.84197998046875,0.0756378173828125,0.1280670166015625
1702338694955026700,20.837026611328124,9.842575073242188,0.0709686279296875,0.13140869140625
1702338695055765200,20.93776513671875,9.837905883789062,0.068572998046875,0.13140869140625
1702338695156473300,21.038473388671875,9.839111328125,0.0735931396484375,0.1321258544921875
1702338695257181200,21.13918115234375,9.84808349609375,0.074188232421875,0.1278228759765625
1702338695357889300,21.23988916015625,9.849990844726562,0.0728759765625,0.12518310546875
1702338695458597400,21.340597412109375,9.839950561523438,0.074432373046875,0.1305694580078125
1702338695559305200,21.44130517578125,9.835403442382812,0.0721588134765625,0.1339263916015625
1702338695660013300,21.542013427734375,9.8450927734375,0.0703582763671875,0.1220703125
1702338695760751900,21.642751953125,9.852386474609375,0.068328857421875,0.13153076171875
1702338695861460000,21.7434599609375,9.836715698242188,0.06976318359375,0.11322021484375
1702338695962198300,21.8441982421875,9.848434448242188,0.0677337646484375,0.127227783203125
1702338696062906400,21.94490625,9.8568115234375,0.0734710693359375,0.1354827880859375
1702338696163645000,22.04564501953125,9.858612060546875,0.067138671875,0.1279449462890625
1702338696264383500,22.146383544921875,9.857406616210938,0.0722808837890625,0.1261444091796875
1702338696365091300,22.24709130859375,9.849395751953125,0.0691680908203125,0.1343994140625
1702338696465830000,22.347829833984374,9.849044799804688,0.0724029541015625,0.1367950439453125
1702338696566568400,22.448568359375,9.853103637695312,0.07037353515625,0.126983642578125
1702338696667307000,22.54930712890625,9.8748779296875,0.0737152099609375,0.129730224609375
1702338696768045600,22.650045654296875,9.8331298828125,0.125396728515625,0.043243408203125
1702338696868753700,22.750753662109375,9.816253662109375,0.1329345703125,0.040130615234375
1702338696969492000,22.851491943359374,9.839340209960938,0.0831756591796875,0.22161865234375
1702338697070230500,22.95223046875,9.823074340820312,0.0891571044921875,0.0263671875
1702338697170938600,23.052938720703125,9.825103759765625,0.083404541015625,0.126739501953125
1702338697271707600,23.153707763671875,9.842575073242188,0.0831756591796875,0.1371612548828125
1702338697372446200,23.2544462890625,9.841018676757812,0.0787353515625,0.141693115234375
1702338697473154300,23.355154296875,9.852264404296875,0.0738372802734375,0.1440887451171875
1702338697573923300,23.45592333984375,9.843292236328125,0.0831756591796875,0.13775634765625
1702338697674661600,23.55666162109375,9.849517822265625,0.0817413330078125,0.1446990966796875
1702338697775400200,23.657400146484374,9.846527099609375,0.085205078125,0.1364288330078125
1702338697876169200,23.758169189453124,9.848922729492188,0.0817413330078125,0.1402587890625
1702338697976907800,23.85890771484375,9.842575073242188,0.08221435546875,0.151519775390625
1702338698077676800,23.9596767578125,9.844131469726562,0.083404541015625,0.1518707275390625
1702338698178445800,24.06044580078125,9.829299926757812,0.0830535888671875,0.1427764892578125
1702338698279245600,24.16124560546875,9.831329345703125,0.0824432373046875,0.1463623046875
1702338698379984100,24.261984130859375,9.834442138671875,0.0829315185546875,0.1443328857421875
1702338698480753200,24.362753173828125,9.840423583984375,0.0798187255859375,0.1444549560546875
1702338698581491700,24.46349169921875,9.8330078125,0.0830535888671875,0.1474456787109375
1702338698682230000,24.56422998046875,9.840423583984375,0.0848388671875,0.142181396484375
1702338698782968600,24.664968505859374,9.840667724609375,0.0844879150390625,0.13775634765625
1702338698883707100,24.76570703125,9.845809936523438,0.08209228515625,0.1466064453125
1702338698984445700,24.86644580078125,9.836715698242188,0.08197021484375,0.1515045166015625
1702338699085153800,24.96715380859375,9.838027954101562,0.0812530517578125,0.1424102783203125
1702338699185861600,25.067861572265624,9.844253540039062,0.083404541015625,0.13775634765625
1702338699286600200,25.16860009765625,9.831085205078125,0.086273193359375,0.14349365234375
1702338699387338800,25.2693388671875,9.840545654296875,0.083892822265625,0.1443328857421875
1702338699488107800,25.370107666015624,9.832412719726562,0.08197021484375,0.13787841796875
1702338699588846300,25.470846435546875,9.847122192382812,0.0795745849609375,0.1402587890625
1702338699689585000,25.5715849609375,9.8326416015625,0.0803070068359375,0.147918701171875
1702338699790292700,25.672292724609374,9.837066650390625,0.0800628662109375,0.1458892822265625
1702338699891031300,25.77303125,9.830612182617188,0.0877227783203125,0.1412200927734375
1702338699991769900,25.873769775390624,9.836593627929688,0.0814971923828125,0.14361572265625
1702338700092508400,25.97450830078125,9.835159301757812,0.0843658447265625,0.1442108154296875
1702338700193247000,26.0752470703125,9.839584350585938,0.08221435546875,0.148284912109375
1702338700293955000,26.175955078125,9.842453002929688,0.0786285400390625,0.1470794677734375
1702338700394663000,26.276662841796874,9.834564208984375,0.080413818359375,0.1468353271484375
1702338700495432000,26.377431884765624,9.833847045898438,0.08544921875,0.142425537109375
1702338700596170500,26.47817041015625,9.837799072265625,0.0855560302734375,0.145294189453125
1702338700696909000,26.578908935546874,9.82977294921875,0.083282470703125,0.1531829833984375
1702338700797647600,26.679647705078125,9.838516235351562,0.078857421875,0.154510498046875
1702338700898386200,26.78038623046875,9.8507080078125,0.083770751953125,0.144927978515625
1702338700999155200,26.8811552734375,9.836349487304688,0.083770751953125,0.14361572265625
1702338701099893800,26.981893798828125,9.848922729492188,0.0871124267578125,0.142303466796875
1702338701200662800,27.082662841796875,9.849273681640625,0.080535888671875,0.1458892822265625
1702338701301401300,27.1834013671875,9.853103637695312,0.08770751953125,0.14935302734375
1702338701402170400,27.28417041015625,9.843414306640625,0.083770751953125,0.1486358642578125
1702338701502909000,27.384908935546875,9.848922729492188,0.0828094482421875,0.15521240234375
1702338701603678000,27.485677978515625,9.846649169921875,0.086883544921875,0.14337158203125
1702338701704416500,27.58641650390625,9.847000122070312,0.0826873779296875,0.142181396484375
1702338701805154800,27.68715478515625,9.852859497070312,0.083282470703125,0.1443328857421875
1702338701905893400,27.787893310546874,9.8330078125,0.0843658447265625,0.1499481201171875
1702338702006632000,27.8886318359375,9.847366333007812,0.084716796875,0.14984130859375
1702338702107401000,27.98940087890625,9.844009399414062,0.0861663818359375,0.141815185546875
1702338702208139500,28.090139404296874,9.845443725585938,0.0859222412109375,0.145050048828125
1702338702308878000,28.190878173828125,9.837432861328125,0.077911376953125,0.1466064453125
1702338702409616600,28.29161669921875,9.831802368164062,0.0873565673828125,0.14996337890625
1702338702510355200,28.392355224609375,9.834197998046875,0.0843658447265625,0.1487579345703125
1702338702611093800,28.49309375,9.835525512695312,0.0876007080078125,0.13751220703125
1702338702711862800,28.59386279296875,9.833602905273438,0.0831756591796875,0.142425537109375
1702338702812601000,28.69460107421875,9.830978393554688,0.086273193359375,0.1516265869140625
1702338702913309200,28.79530908203125,9.83551025390625,0.0855560302734375,0.146728515625
1702338703014047700,28.8960478515625,9.838394165039062,0.086883544921875,0.140380859375
1702338703114786300,28.996786376953125,9.846160888671875,0.0828094482421875,0.1427764892578125
1702338703215494400,29.097494384765625,9.834686279296875,0.0911865234375,0.145294189453125
1702338703316232700,29.198232666015624,9.841262817382812,0.08795166015625,0.1343994140625
1702338703416940800,29.29894091796875,9.844497680664062,0.0798187255859375,0.150909423828125
1702338703517679400,29.399679443359375,9.835037231445312,0.0848388671875,0.157135009765625
1702338703618387500,29.500387451171875,9.84185791015625,0.0855560302734375,0.148284912109375
1702338703719125800,29.601125732421874,9.845443725585938,0.083770751953125,0.1444549560546875
1702338703819864300,29.7018642578125,9.840774536132812,0.083648681640625,0.14971923828125
1702338703920572400,29.802572509765625,9.838150024414062,0.08209228515625,0.147796630859375
1702338704021311000,29.90331103515625,9.841140747070312,0.0825653076171875,0.140625
1702338704122018800,30.004018798828124,9.841018676757812,0.0854339599609375,0.13751220703125
1702338704222727000,30.104726806640624,9.845687866210938,0.0872344970703125,0.146728515625
1702338704323435000,30.20543505859375,9.850479125976562,0.08795166015625,0.1445770263671875
1702338704424173600,30.306173583984375,9.83026123046875,0.089752197265625,0.148406982421875
1702338704524881400,30.40688134765625,9.8328857421875,0.086639404296875,0.146484375
1702338704625620000,30.507619873046874,9.844375610351562,0.080780029296875,0.145416259765625
1702338704726389000,30.608388916015624,9.82952880859375,0.0829315185546875,0.1456451416015625
1702338704827127600,30.70912744140625,9.843536376953125,0.08795166015625,0.1474456787109375
1702338704927866000,30.8098662109375,9.842575073242188,0.0812530517578125,0.1463623046875
1702338705028604700,30.910604736328125,9.836471557617188,0.08172607421875,0.1503143310546875
1702338705129340200,31.011340087890623,9.84771728515625,0.0841217041015625,0.1463623046875
1702338705230078700,31.11207861328125,9.836715698242188,0.08233642578125,0.153778076171875
1702338705330786800,31.212786865234374,9.839462280273438,0.0813751220703125,0.1488800048828125
1702338705431525400,31.313525390625,9.846771240234375,0.089141845703125,0.1425323486328125
1702338705532233500,31.4142333984375,9.8385009765625,0.086639404296875,0.1440887451171875
1702338705633002500,31.51500244140625,9.842819213867188,0.0850830078125,0.14349365234375
1702338705733740800,31.61574072265625,9.848434448242188,0.089996337890625,0.1456451416015625
1702338705834479400,31.716479248046873,9.84796142578125,0.0858001708984375,0.1439666748046875
1702338705935248400,31.817248291015623,9.833480834960938,0.0872344970703125,0.1461334228515625
1702338706035987000,31.917987060546874,9.8507080078125,0.08795166015625,0.1474456787109375
1702338706136725500,32.0187255859375,9.837905883789062,0.0781402587890625,0.1468505859375
1702338706237464000,32.11946411132813,9.847000122070312,0.0860443115234375,0.1457672119140625
1702338706338202600,32.22020263671875,9.833724975585938,0.0839996337890625,0.1476898193359375
1702338706438941200,32.32094116210938,9.844131469726562,0.086517333984375,0.1442108154296875
1702338706539679700,32.4216796875,9.84197998046875,0.0855560302734375,0.140380859375
1702338706640418000,32.52241796875,9.836837768554688,0.0855560302734375,0.1351165771484375
1702338706741126100,32.62312622070313,9.835403442382812,0.083160400390625,0.1468505859375
1702338706841864700,32.72386474609375,9.848434448242188,0.084014892578125,0.151153564453125
1702338706942603300,32.82460327148438,9.831924438476562,0.0810089111328125,0.145294189453125
1702338707043341800,32.925341796875,9.840301513671875,0.08184814453125,0.14398193359375
1702338707144049700,33.02604956054687,9.833847045898438,0.0855560302734375,0.1354827880859375
1702338707244757800,33.1267578125,9.839340209960938,0.083770751953125,0.14947509765625
1702338707345496300,33.22749633789063,9.842330932617188,0.08233642578125,0.1524658203125
1702338707446204400,33.32820434570313,9.844009399414062,0.0828094482421875,0.145538330078125
1702338707546942700,33.42894262695312,9.840896606445312,0.080535888671875,0.1412200927734375
1702338707647681300,33.52968139648438,9.84759521484375,0.0860443115234375,0.1486358642578125
1702338707748419800,33.630419921875,9.850234985351562,0.0829315185546875,0.1402587890625
1702338707849158400,33.73115844726563,9.835525512695312,0.0831756591796875,0.1460113525390625
1702338707949866500,33.83186645507813,9.849990844726562,0.0847320556640625,0.136199951171875
1702338708050605000,33.93260498046875,9.839111328125,0.0901031494140625,0.15234375
1702338708151343400,34.03334326171875,9.837677001953125,0.0860443115234375,0.1466064453125
1702338708252082000,34.13408203125,9.84796142578125,0.083892822265625,0.140380859375
1702338708352790000,34.2347900390625,9.840057373046875,0.08544921875,0.142059326171875
1702338708453528600,34.33552856445313,9.839706420898438,0.0890350341796875,0.1476898193359375
1702338708554297600,34.43629760742188,9.840301513671875,0.080902099609375,0.145050048828125
1702338708655005400,34.53700537109375,9.851318359375,0.0853271484375,0.1443328857421875
1702338708755744000,34.63774389648437,9.8448486328125,0.0889129638671875,0.144683837890625
1702338708856452000,34.7384521484375,9.842697143554688,0.08184814453125,0.141937255859375
1702338708957190700,34.83919067382813,9.831695556640625,0.078857421875,0.1402587890625
1702338709057929200,34.93992919921875,9.8330078125,0.0873565673828125,0.1506805419921875
1702338709158667800,35.04066772460938,9.8450927734375,0.083282470703125,0.1460113525390625
1702338709259406000,35.14140600585937,9.844253540039062,0.0861663818359375,0.1396636962890625
1702338709360144600,35.24214453125,9.832534790039062,0.089996337890625,0.1410980224609375
1702338709460883200,35.34288330078125,9.834793090820312,0.08831787109375,0.1470794677734375
1702338709561652200,35.44365234375,9.836715698242188,0.078857421875,0.1426544189453125
1702338709662390800,35.54439086914063,9.845809936523438,0.0889129638671875,0.14971923828125
1702338709763099000,35.64509887695313,9.832168579101562,0.08807373046875,0.1469573974609375
1702338709863837400,35.74583740234375,9.85107421875,0.0789794921875,0.1425323486328125
1702338709964576000,35.84657592773438,9.84783935546875,0.0824432373046875,0.1412200927734375
1702338710065314300,35.94731420898437,9.829421997070312,0.083892822265625,0.1500701904296875
1702338710166022400,36.0480224609375,9.831573486328125,0.0844879150390625,0.1415863037109375
1702338710266761000,36.14876098632813,9.8389892578125,0.086395263671875,0.144805908203125
1702338710367499500,36.24949951171875,9.839462280273438,0.083404541015625,0.150909423828125
1702338710468207400,36.35020727539062,9.844253540039062,0.08795166015625,0.153900146484375
1702338710568946000,36.45094580078125,9.829299926757812,0.0859222412109375,0.1395416259765625
1702338710669684500,36.5516845703125,9.8330078125,0.08770751953125,0.14337158203125
1702338710770453500,36.65245361328125,9.841506958007812,0.0812530517578125,0.1488800048828125
1702338710871192000,36.75319213867188,9.843170166015625,0.0829315185546875,0.14947509765625
1702338710971930600,36.8539306640625,9.82989501953125,0.08221435546875,0.1384735107421875
1702338711072699600,36.95469970703125,9.834793090820312,0.0853271484375,0.1466064453125
1702338711173468700,37.05546875,9.84185791015625,0.083648681640625,0.1530609130859375
1702338711274207200,37.15620727539063,9.834564208984375,0.083770751953125,0.14361572265625
1702338711374976300,37.25697631835938,9.831100463867188,0.083648681640625,0.1426544189453125
1702338711475714800,37.35771484375,9.827499389648438,0.0849609375,0.1446990966796875
1702338711576453400,37.45845336914063,9.8387451171875,0.0858001708984375,0.1468505859375
1702338711677192000,37.55919189453125,9.8271484375,0.0855560302734375,0.14398193359375
1702338711777899800,37.65989965820312,9.836349487304688,0.080413818359375,0.1410980224609375
1702338711878638300,37.76063842773438,9.8389892578125,0.086639404296875,0.1475677490234375
1702338711979346400,37.86134643554688,9.847000122070312,0.086761474609375,0.1354827880859375
1702338712080115500,37.96211547851563,9.84747314453125,0.086883544921875,0.1475677490234375
1702338712180854000,38.06285400390625,9.8446044921875,0.083892822265625,0.146484375
1702338712281592600,38.16359252929688,9.841506958007812,0.087005615234375,0.141815185546875
1702338712382331000,38.26433081054687,9.837310791015625,0.0843658447265625,0.14984130859375
1702338712483100200,38.36510009765625,9.853591918945312,0.0800628662109375,0.1425323486328125
1702338712583808000,38.46580810546875,9.847488403320312,0.08209228515625,0.14947509765625
1702338712684577000,38.56657690429687,9.8387451171875,0.0860443115234375,0.1399078369140625
1702338712785285000,38.66728515625,9.845443725585938,0.0789794921875,0.135711669921875
1702338712885993200,38.7679931640625,9.848434448242188,0.0844879150390625,0.1448211669921875
1702338712986731500,38.8687314453125,9.840896606445312,0.0873565673828125,0.1468505859375
1702338713087439600,38.96943969726563,9.8446044921875,0.086517333984375,0.14935302734375
1702338713188178200,39.07017822265625,9.827743530273438,0.0889129638671875,0.14935302734375
1702338713288886300,39.17088623046875,9.843658447265625,0.0861663818359375,0.1428985595703125
1702338713389624800,39.27162475585938,9.838150024414062,0.0872344970703125,0.1505584716796875
1702338713490363100,39.37236303710937,9.843902587890625,0.0874786376953125,0.1461334228515625
1702338713591101700,39.47310180664063,9.839462280273438,0.0858001708984375,0.148040771484375
1702338713691840300,39.57384033203125,9.83587646484375,0.08795166015625,0.150787353515625
1702338713792578800,39.67457885742188,9.8328857421875,0.0848388671875,0.1535491943359375
1702338713893317400,39.7753173828125,9.846054077148438,0.0876007080078125,0.1527099609375
1702338713994086400,39.87608642578125,9.839462280273438,0.0869903564453125,0.148284912109375
1702338714094825000,39.97682495117188,9.831451416015625,0.08221435546875,0.1516265869140625
1702338714195562000,40.07756201171875,9.840545654296875,0.0849609375,0.151153564453125
1702338714296300300,40.17830029296875,9.838272094726562,0.08233642578125,0.150787353515625
1702338714397038800,40.279038818359375,9.845687866210938,0.0825653076171875,0.145294189453125
1702338714497777400,40.37977734375,9.849761962890625,0.0796966552734375,0.13787841796875
1702338714598485500,40.48048559570312,9.833847045898438,0.0812530517578125,0.1460113525390625
1702338714699254500,40.58125463867187,9.839218139648438,0.085205078125,0.135833740234375
1702338714799993000,40.6819931640625,9.83013916015625,0.0921478271484375,0.145172119140625
1702338714900731600,40.78273168945312,9.8447265625,0.0876007080078125,0.1505584716796875
1702338715001439500,40.883439453125,9.838027954101562,0.0848388671875,0.14385986328125
1702338715102178000,40.984177978515625,9.834564208984375,0.0816192626953125,0.1505584716796875
1702338715202916600,41.08491650390625,9.843780517578125,0.086395263671875,0.14971923828125
1702338715303685600,41.185685546875,9.833358764648438,0.0844879150390625,0.150787353515625
1702338715404424200,41.286424072265625,9.839218139648438,0.0813751220703125,0.1468505859375
1702338715505193200,41.387193115234375,9.831924438476562,0.0829315185546875,0.1446990966796875
1702338715605931800,41.48793188476562,9.832046508789062,0.08819580078125,0.1506805419921875
1702338715706670300,41.58867041015625,9.849395751953125,0.086639404296875,0.1458892822265625
1702338715807409000,41.68940893554687,9.837905883789062,0.08782958984375,0.145172119140625
1702338715908147200,41.790147216796875,9.836593627929688,0.0828094482421875,0.1426544189453125
1702338716008885800,41.8908857421875,9.8326416015625,0.0871124267578125,0.1499481201171875
1702338716109624300,41.991624267578125,9.843658447265625,0.086639404296875,0.14349365234375
1702338716210332400,42.09233251953125,9.84185791015625,0.08819580078125,0.14996337890625
1702338716311040300,42.193040283203125,9.84759521484375,0.083892822265625,0.1468505859375
1702338716411778800,42.29377880859375,9.843048095703125,0.085205078125,0.1515045166015625
1702338716512517400,42.394517333984375,9.846527099609375,0.091064453125,0.140625
1702338716613256000,42.495255859375,9.85345458984375,0.080780029296875,0.148162841796875
1702338716713994500,42.595994384765625,9.840301513671875,0.0841217041015625,0.1522369384765625
1702338716814733000,42.69673315429687,9.839111328125,0.0842437744140625,0.1460113525390625
1702338716915471600,42.7974716796875,9.840667724609375,0.083770751953125,0.1501922607421875
1702338717016210200,42.89821020507812,9.8385009765625,0.083892822265625,0.140625
1702338717116948500,42.998948486328125,9.833847045898438,0.0869903564453125,0.1475677490234375
1702338717217687000,43.09968701171875,9.85382080078125,0.089508056640625,0.1399078369140625
1702338717318456000,43.2004560546875,9.844131469726562,0.0842437744140625,0.151519775390625
1702338717419194600,43.301194580078125,9.840301513671875,0.0869903564453125,0.14385986328125
1702338717519963600,43.401963623046875,9.844253540039062,0.086761474609375,0.146728515625
1702338717620702200,43.5027021484375,9.848434448242188,0.0792236328125,0.142181396484375
1702338717721440800,43.603440673828125,9.839706420898438,0.083648681640625,0.1491241455078125
1702338717822209800,43.704209716796875,9.837310791015625,0.080535888671875,0.140869140625
1702338717922948400,43.8049482421875,9.84771728515625,0.086761474609375,0.1486358642578125
1702338718023687000,43.90568701171875,9.840774536132812,0.0904693603515625,0.1461334228515625
1702338718124394800,44.006394775390625,9.847366333007812,0.0826873779296875,0.147918701171875
1702338718225164000,44.1071640625,9.838623046875,0.086273193359375,0.1487579345703125
1702338718325902300,44.20790234375,9.845687866210938,0.0886688232421875,0.1535491943359375
1702338718426671400,44.30867138671875,9.848678588867188,0.086395263671875,0.14398193359375
1702338718527410000,44.409409912109375,9.839340209960938,0.0873565673828125,0.14349365234375
1702338718628179000,44.510178955078125,9.845932006835938,0.0842437744140625,0.150909423828125
1702338718728917500,44.61091748046875,9.84832763671875,0.089752197265625,0.1455230712890625
1702338718829656000,44.711656005859375,9.84222412109375,0.0859222412109375,0.145294189453125
1702338718930394600,44.81239453125,9.843048095703125,0.0858001708984375,0.147918701171875
1702338719031102700,44.91310278320312,9.835037231445312,0.0871124267578125,0.153778076171875
1702338719131841300,45.01384130859375,9.830612182617188,0.08197021484375,0.14923095703125
1702338719232579600,45.11457958984375,9.8448486328125,0.091552734375,0.1468505859375
1702338719333318100,45.215318115234375,9.8389892578125,0.0856781005859375,0.145416259765625
1702338719434056700,45.316056640625,9.843170166015625,0.0849609375,0.1521148681640625
1702338719534825700,45.41682568359375,9.846527099609375,0.0853271484375,0.1443328857421875
1702338719635594800,45.5175947265625,9.831802368164062,0.0848388671875,0.1475677490234375
1702338719736333300,45.618333251953125,9.837188720703125,0.0830535888671875,0.14971923828125
1702338719837072000,45.71907177734375,9.831924438476562,0.0828094482421875,0.1473236083984375
1702338719937810400,45.819810546875,9.837677001953125,0.0850830078125,0.1457672119140625
1702338720038549000,45.92054907226562,9.836471557617188,0.089874267578125,0.1460113525390625
1702338720139256800,46.0212568359375,9.84222412109375,0.0831756591796875,0.147674560546875
1702338720239995400,46.121995361328125,9.841018676757812,0.083404541015625,0.147796630859375
1702338720340703500,46.222703369140625,9.845565795898438,0.089630126953125,0.139068603515625
1702338720441442000,46.32344213867187,9.838150024414062,0.0877227783203125,0.1506805419921875
1702338720542180600,46.4241806640625,9.839584350585938,0.089508056640625,0.1506805419921875
1702338720642919200,46.52491918945312,9.840545654296875,0.0839996337890625,0.14984130859375
1702338720743657500,46.625657470703125,9.841140747070312,0.0796966552734375,0.1425323486328125
1702338720844365600,46.726365478515625,9.846160888671875,0.0844879150390625,0.148162841796875
1702338720945104100,46.82710424804687,9.846649169921875,0.0844879150390625,0.1491241455078125
1702338721045812200,46.92781225585937,9.842453002929688,0.0873565673828125,0.134765625
1702338721146520000,47.02852001953125,9.83624267578125,0.08544921875,0.1466064453125
1702338721247228200,47.12922827148437,9.8328857421875,0.0849609375,0.1490020751953125
1702338721347966700,47.229966796875,9.836944580078125,0.08184814453125,0.14337158203125
1702338721448674600,47.330674560546875,9.846878051757812,0.0844879150390625,0.140869140625
1702338721549413000,47.4314130859375,9.855743408203125,0.0872344970703125,0.1473236083984375
1702338721650151700,47.532151611328125,9.847488403320312,0.08782958984375,0.1515045166015625
1702338721750859800,47.63285986328125,9.840179443359375,0.091552734375,0.1352386474609375
1702338721851598300,47.73359838867187,9.837783813476562,0.089385986328125,0.14971923828125
1702338721952306200,47.83430615234375,9.8387451171875,0.089385986328125,0.1524658203125
1702338722053044700,47.935044677734375,9.85107421875,0.08197021484375,0.1560516357421875
1702338722153752800,48.0357529296875,9.844131469726562,0.0872344970703125,0.150909423828125
1702338722254491400,48.13649145507812,9.84222412109375,0.083892822265625,0.14959716796875
1702338722355260400,48.23726049804687,9.839828491210938,0.08209228515625,0.1424102783203125
1702338722455999000,48.3379990234375,9.849151611328125,0.0856781005859375,0.1505584716796875
1702338722556737300,48.4387373046875,9.846038818359375,0.0860443115234375,0.1445770263671875
1702338722657475800,48.539475830078125,9.840301513671875,0.0874786376953125,0.14697265625
1702338722758214400,48.64021435546875,9.844375610351562,0.0903472900390625,0.15582275390625
1702338722858953000,48.740952880859375,9.839462280273438,0.0844879150390625,0.1426544189453125
1702338722959691500,48.84169140625,9.843170166015625,0.0872344970703125,0.144805908203125
1702338723060430000,48.94243017578125,9.837554931640625,0.089996337890625,0.144805908203125
1702338723161168600,49.04316870117187,9.8389892578125,0.089752197265625,0.146240234375
1702338723261907200,49.1439072265625,9.844009399414062,0.08819580078125,0.1478118896484375
1702338723362645500,49.2446455078125,9.835037231445312,0.0890350341796875,0.14947509765625
1702338723463353600,49.345353515625,9.845321655273438,0.0877227783203125,0.1469573974609375
1702338723564061700,49.44606176757812,9.8387451171875,0.083282470703125,0.1455230712890625
1702338723664800300,49.54680029296875,9.846282958984375,0.086395263671875,0.1427764892578125
1702338723765538600,49.64753857421875,9.837066650390625,0.086395263671875,0.1534271240234375
1702338723866246700,49.74824658203125,9.85357666015625,0.086517333984375,0.1472015380859375
1702338723966985200,49.848985107421875,9.853469848632812,0.0886688232421875,0.148284912109375
1702338724067723800,49.94972387695312,9.85430908203125,0.08819580078125,0.1564178466796875
1702338724168462300,50.05046240234375,9.848922729492188,0.0869903564453125,0.1445770263671875
1702338724269201000,50.15120092773437,9.844131469726562,0.08795166015625,0.1501922607421875
1702338724369908700,50.25190869140625,9.843048095703125,0.08795166015625,0.154144287109375
1702338724470647300,50.352647216796875,9.847000122070312,0.0873565673828125,0.1475677490234375
1702338724571355400,50.45335546875,9.847122192382812,0.0873565673828125,0.1527099609375
1702338724672094000,50.55409399414062,9.834197998046875,0.08819580078125,0.1527099609375
1702338724772863000,50.65486303710937,9.833480834960938,0.0891571044921875,0.1490020751953125
1702338724873601500,50.7556015625,9.839584350585938,0.089508056640625,0.1485137939453125
1702338724974339800,50.85633984375,9.830368041992188,0.0901031494140625,0.13726806640625
1702338725075048000,50.9570478515625,9.845932006835938,0.089508056640625,0.15234375
1702338725175786500,51.057786376953125,9.840423583984375,0.09393310546875,0.151397705078125
1702338725276555500,51.158555419921875,9.833602905273438,0.089752197265625,0.145294189453125
1702338725377311500,51.2593115234375,9.831329345703125,0.0848388671875,0.153900146484375
1702338725478050000,51.36005004882813,9.842697143554688,0.0838775634765625,0.145050048828125
1702338725578788600,51.46078857421875,9.8448486328125,0.08856201171875,0.1456451416015625
1702338725679557600,51.5615576171875,9.845809936523438,0.0884246826171875,0.1415863037109375
1702338725780296200,51.66229614257813,9.83624267578125,0.0920257568359375,0.1417083740234375
1702338725881034800,51.76303466796875,9.8446044921875,0.086883544921875,0.1442108154296875
1702338725981773300,51.86377319335938,9.846160888671875,0.0908203125,0.1483917236328125
1702338726082481200,51.96448120117188,9.82965087890625,0.086517333984375,0.140625
1702338726183219700,52.0652197265625,9.825103759765625,0.0853271484375,0.147918701171875
1702338726283958300,52.16595825195313,9.837432861328125,0.089630126953125,0.154266357421875
1702338726384696800,52.26669677734375,9.8447265625,0.0892791748046875,0.1505584716796875
1702338726485374200,52.36737426757813,9.8387451171875,0.083770751953125,0.1470794677734375
1702338726586112800,52.46811279296875,9.843292236328125,0.0874786376953125,0.1415863037109375
1702338726686820900,52.56882080078125,9.847122192382812,0.084014892578125,0.152587890625
1702338726787559400,52.66955932617188,9.838272094726562,0.0903472900390625,0.1500701904296875
1702338726888267300,52.77026733398438,9.840423583984375,0.0861663818359375,0.1473236083984375
1702338726989005800,52.871005859375,9.840057373046875,0.089385986328125,0.1491241455078125
1702338727089744400,52.97174438476563,9.82965087890625,0.0889129638671875,0.1458892822265625
1702338727190452500,53.07245239257813,9.831924438476562,0.086761474609375,0.147918701171875
1702338727291221500,53.17322143554688,9.824386596679688,0.0874786376953125,0.1518707275390625
1702338727391960000,53.2739599609375,9.827743530273438,0.083526611328125,0.145172119140625
1702338727492698600,53.37469873046875,9.8450927734375,0.0831756591796875,0.14697265625
1702338727593406500,53.47540649414063,9.83551025390625,0.08197021484375,0.146728515625
1702338727694175500,53.57617553710938,9.834686279296875,0.0781402587890625,0.145172119140625
1702338727794944500,53.67694458007813,9.840545654296875,0.0828094482421875,0.138824462890625
1702338727895683000,53.77768310546875,9.846282958984375,0.0901031494140625,0.148162841796875
1702338727996421600,53.87842163085938,9.827972412109375,0.0916595458984375,0.1428985595703125
1702338728097160200,53.97916015625,9.836593627929688,0.0869903564453125,0.1353607177734375
1702338728197898800,54.07989868164063,9.83575439453125,0.08795166015625,0.1460113525390625
1702338728298637300,54.18063720703125,9.840301513671875,0.0889129638671875,0.142425537109375
1702338728399376000,54.2813759765625,9.846160888671875,0.08221435546875,0.14410400390625
1702338728500114200,54.3821142578125,9.838623046875,0.0909423828125,0.1428985595703125
1702338728600852700,54.48285278320313,9.840667724609375,0.087005615234375,0.1446990966796875
1702338728701591300,54.58359130859375,9.838623046875,0.08819580078125,0.146240234375
1702338728802329900,54.68432983398438,9.836959838867188,0.0829315185546875,0.148284912109375
1702338728903068400,54.785068359375,9.841140747070312,0.08807373046875,0.1490020751953125
1702338729003807000,54.88580688476563,9.84222412109375,0.0848388671875,0.14971923828125
1702338729104576000,54.98657592773438,9.845809936523438,0.0871124267578125,0.1444549560546875
1702338729205314600,55.087314453125,9.83251953125,0.0872344970703125,0.1456451416015625
1702338729306053000,55.18805322265625,9.840179443359375,0.089752197265625,0.148162841796875
1702338729406761000,55.28876098632813,9.852630615234375,0.0811309814453125,0.154388427734375
1702338729507499500,55.38949951171875,9.84161376953125,0.083404541015625,0.148040771484375
1702338729608207600,55.49020751953125,9.847000122070312,0.0873565673828125,0.151153564453125
1702338729708946200,55.5909462890625,9.843063354492188,0.086639404296875,0.147796630859375
1702338729809715200,55.69171508789063,9.840057373046875,0.083770751953125,0.142059326171875
1702338729910423000,55.79242309570313,9.847366333007812,0.0903472900390625,0.142059326171875
1702338730011131100,55.89313110351563,9.842453002929688,0.0849609375,0.148040771484375
1702338730111869700,55.99386962890625,9.853347778320312,0.0844879150390625,0.148284912109375
1702338730212608300,56.09460815429688,9.84783935546875,0.0909423828125,0.138702392578125
1702338730313346800,56.195346923828126,9.835159301757812,0.0703582763671875,0.1470794677734375
1702338730414054700,56.2960546875,9.84771728515625,0.0800628662109375,0.14373779296875
1702338730514793200,56.39679321289063,9.847488403320312,0.08819580078125,0.140625
1702338730615501300,56.49750122070313,9.83612060546875,0.072998046875,0.1442108154296875
1702338730716240000,56.598239990234376,9.841262817382812,0.081024169921875,0.1413421630859375
1702338730816978400,56.698978515625,9.835281372070312,0.08831787109375,0.1414642333984375
1702338730917686300,56.79968627929688,9.8389892578125,0.0873565673828125,0.146728515625
1702338731018424800,56.9004248046875,9.84771728515625,0.0915374755859375,0.1431427001953125
1702338731119163400,57.00116333007813,9.851303100585938,0.0858001708984375,0.1356048583984375
1702338731219902000,57.10190185546875,9.831924438476562,0.089752197265625,0.1460113525390625
1702338731320579300,57.20257934570313,9.840896606445312,0.0932159423828125,0.1474456787109375
1702338731421318000,57.30331787109375,9.838272094726562,0.091064453125,0.1425323486328125
1702338731522056400,57.40405639648438,9.828216552734375,0.0859222412109375,0.1535491943359375
1702338731622764500,57.5047646484375,9.83587646484375,0.089996337890625,0.145050048828125
1702338731723502800,57.6055029296875,9.850357055664062,0.0753936767578125,0.1470794677734375
1702338731824241400,57.70624145507813,9.831695556640625,0.0858001708984375,0.1468505859375
1702338731924949500,57.80694946289063,9.834808349609375,0.08782958984375,0.1488800048828125
1702338732025688000,57.90768798828125,9.837905883789062,0.0886688232421875,0.154022216796875
1702338732126426600,58.00842651367188,9.833847045898438,0.089263916015625,0.14337158203125
1702338732227165200,58.109165283203126,9.84210205078125,0.0869903564453125,0.14361572265625
1702338732327903500,58.20990356445313,9.84173583984375,0.0859222412109375,0.1458892822265625
1702338732428642000,58.31064208984375,9.839950561523438,0.0860443115234375,0.148040771484375
1702338732529380600,58.41138061523438,9.843658447265625,0.0860443115234375,0.1405029296875
1702338732630088700,58.51208862304688,9.850234985351562,0.083648681640625,0.1413421630859375
1702338732730827300,58.6128271484375,9.844970703125,0.08843994140625,0.145050048828125
1702338732831565800,58.71356591796875,9.8333740234375,0.08807373046875,0.148040771484375
1702338732932273700,58.81427368164063,9.825225830078125,0.0884246826171875,0.1468505859375
1702338733033012200,58.91501220703125,9.840423583984375,0.09454345703125,0.145172119140625
1702338733133750800,59.01575073242188,9.830978393554688,0.0872344970703125,0.1399078369140625
1702338733234489300,59.1164892578125,9.840667724609375,0.089630126953125,0.142181396484375
1702338733335228000,59.21722778320313,9.840072631835938,0.0919036865234375,0.148040771484375
1702338733435966500,59.317966552734376,9.836959838867188,0.08782958984375,0.145050048828125
1702338733536674300,59.41867431640625,9.843048095703125,0.0860443115234375,0.1551055908203125
1702338733637412900,59.51941284179688,9.84796142578125,0.08831787109375,0.157379150390625
1702338733738151400,59.6201513671875,9.8388671875,0.089996337890625,0.1461181640625
1702338733838890000,59.72088989257813,9.842330932617188,0.08807373046875,0.1564178466796875
1702338733939659000,59.82165893554688,9.840423583984375,0.092742919921875,0.14337158203125
1702338734040397600,59.9223974609375,9.8328857421875,0.0847320556640625,0.1488800048828125
1702338734141166600,60.02316650390625,9.8507080078125,0.0919036865234375,0.151519775390625
1702338734241905200,60.1239052734375,9.840545654296875,0.0948944091796875,0.1522216796875
1702338734342643700,60.224643798828126,9.843536376953125,0.0887908935546875,0.1503143310546875
1702338734443351600,60.3253515625,9.840667724609375,0.0855560302734375,0.151031494140625
1702338734544090000,60.42609008789063,9.838272094726562,0.089385986328125,0.1530609130859375
1702338734644798200,60.52679809570313,9.839828491210938,0.0916595458984375,0.141937255859375
1702338734745536800,60.627536865234376,9.838394165039062,0.0920257568359375,0.1500701904296875
1702338734846305800,60.728305908203126,9.833480834960938,0.0948944091796875,0.147918701171875
1702338734947013600,60.829013671875,9.844253540039062,0.0962066650390625,0.1460113525390625
1702338735047752200,60.92975219726563,9.837188720703125,0.09130859375,0.1503143310546875
1702338735148490800,61.03049072265625,9.842453002929688,0.0767059326171875,0.1490020751953125
1702338735249229300,61.13122924804688,9.840179443359375,0.0909423828125,0.1448211669921875
1702338735349968000,61.2319677734375,9.837066650390625,0.0906982421875,0.1501922607421875
1702338735450706400,61.33270654296875,9.8511962890625,0.0884246826171875,0.15008544921875
1702338735551444700,61.43344482421875,9.830612182617188,0.0872344970703125,0.1456451416015625
1702338735652152800,61.53415283203125,9.848434448242188,0.0871124267578125,0.154022216796875
1702338735752861000,61.63486083984375,9.8326416015625,0.0891571044921875,0.145172119140625
1702338735853568800,61.73556884765625,9.837905883789062,0.0908203125,0.1468505859375
1702338735954276900,61.83627685546875,9.837905883789062,0.0886688232421875,0.1516265869140625
1702338736054985000,61.93698486328125,9.835159301757812,0.0921478271484375,0.1503143310546875
1702338736155662300,62.03766235351563,9.8385009765625,0.0906982421875,0.1460113525390625
1702338736256370400,62.13837036132813,9.843887329101562,0.0915374755859375,0.1417083740234375
1702338736357078500,62.23907861328125,9.840301513671875,0.089996337890625,0.1487579345703125
1702338736457845200,62.33984521484375,9.837554931640625,0.0719146728515625,0.1473236083984375
1702338736558583800,62.44058374023437,9.82977294921875,0.0899810791015625,0.142303466796875
1702338736659322400,62.541322265625,9.852142333984375,0.0725250244140625,0.1516265869140625
1702338736760061000,62.64206103515625,9.847000122070312,0.0861663818359375,0.1522369384765625
1702338736860799500,62.74279956054688,9.843414306640625,0.0853271484375,0.147796630859375
1702338736961507600,62.84350756835938,9.840423583984375,0.0695343017578125,0.1470794677734375
1702338737062246000,62.94424584960937,9.84783935546875,0.0914306640625,0.142181396484375
1702338737163015200,63.04501513671875,9.834915161132812,0.092498779296875,0.14398193359375
1702338737263692500,63.14569262695313,9.847122192382812,0.090118408203125,0.151275634765625
1702338737364431000,63.24643115234375,9.840423583984375,0.0886688232421875,0.1371612548828125
1702338737465200000,63.3472001953125,9.8331298828125,0.089996337890625,0.1415863037109375
1702338737565969200,63.44796923828125,9.84759521484375,0.0919036865234375,0.1384735107421875
1702338737666707700,63.54870776367188,9.838623046875,0.0892791748046875,0.1454010009765625
1702338737767476700,63.64947680664063,9.838623046875,0.0861663818359375,0.1530609130859375
1702338737868215300,63.75021533203125,9.839828491210938,0.080291748046875,0.1475677490234375
1702338737968953900,63.85095385742188,9.839111328125,0.0735931396484375,0.1475677490234375
1702338738069692400,63.9516923828125,9.842575073242188,0.091064453125,0.14349365234375
1702338738170430700,64.0524306640625,9.8388671875,0.086883544921875,0.14935302734375
1702338738271199700,64.15319970703125,9.83612060546875,0.089508056640625,0.1469573974609375
1702338738371938300,64.25393823242187,9.842941284179688,0.0917816162109375,0.136199951171875
1702338738472646400,64.354646484375,9.834793090820312,0.0791015625,0.140625
1702338738573385000,64.45538500976562,9.85369873046875,0.072998046875,0.1410980224609375
1702338738674123500,64.55612353515625,9.84808349609375,0.0872344970703125,0.1457672119140625
1702338738774862000,64.65686206054687,9.834320068359375,0.0903472900390625,0.145416259765625
1702338738875600400,64.75760034179687,9.840423583984375,0.0885467529296875,0.141815185546875
1702338738976308500,64.85830859375,9.85107421875,0.0859222412109375,0.144927978515625
1702338739077047000,64.95904711914062,9.836837768554688,0.086273193359375,0.1444549560546875
1702338739177755100,65.05975512695312,9.842330932617188,0.0830535888671875,0.1445770263671875
1702338739278493400,65.16049340820312,9.840774536132812,0.0722808837890625,0.148162841796875
1702338739379201500,65.26120141601562,9.838272094726562,0.0873565673828125,0.144805908203125
1702338739479909600,65.36190966796875,9.835281372070312,0.0909423828125,0.1518707275390625
1702338739580648200,65.46264819335937,9.828338623046875,0.0886688232421875,0.1488800048828125
1702338739681356000,65.56335595703125,9.837905883789062,0.0906982421875,0.14337158203125
1702338739782094600,65.66409448242187,9.843536376953125,0.09429931640625,0.1524658203125
1702338739882833200,65.76483325195312,9.8448486328125,0.089263916015625,0.1426544189453125
1702338739983541200,65.86554125976562,9.84783935546875,0.08233642578125,0.1428985595703125
1702338740084249000,65.9662490234375,9.845199584960938,0.089385986328125,0.1560516357421875
1702338740184987600,66.06698754882812,9.844009399414062,0.086883544921875,0.1534271240234375
1702338740285726200,66.16772631835937,9.84197998046875,0.086395263671875,0.145050048828125
1702338740386464800,66.26846484375,9.836227416992188,0.092864990234375,0.1485137939453125
1702338740487203300,66.36920336914062,9.846054077148438,0.0905914306640625,0.148406982421875
1702338740587942000,66.46994189453125,9.840301513671875,0.087005615234375,0.14373779296875
1702338740688680400,66.57068041992187,9.833251953125,0.089630126953125,0.1444549560546875
1702338740789418800,66.67141870117187,9.848678588867188,0.0849609375,0.142181396484375
1702338740890126800,66.772126953125,9.839828491210938,0.0858001708984375,0.14324951171875
1702338741264715500,67.14671557617187,9.887924194335938,0.086273193359375,0.13751220703125
1702338741368872200,67.2508720703125,9.897247314453125,0.0886688232421875,0.139434814453125
1702338741472998100,67.354998046875,9.886245727539062,0.0843658447265625,0.1487579345703125
1702338741577154600,67.45915454101562,9.891021728515625,0.0891571044921875,0.1427764892578125
1702338741681250000,67.56325,9.900360107421875,0.0800628662109375,0.141815185546875
1702338741785406500,67.66740649414062,9.886245727539062,0.0798187255859375,0.1410980224609375
1702338741889532400,67.77153247070312,9.885772705078125,0.08245849609375,0.139190673828125
1702338741993689000,67.87568920898437,9.884323120117188,0.0843658447265625,0.1454010009765625
1702338742097815000,67.97981494140625,9.882888793945312,0.0767059326171875,0.1425323486328125
1702338742201941000,68.08394091796875,9.891036987304688,0.0791015625,0.1461334228515625
1702338742306067000,68.18806689453125,9.89605712890625,0.0826873779296875,0.1379852294921875
1702338742410223400,68.29222338867187,9.892227172851562,0.08221435546875,0.14373779296875
1702338742514380000,68.39638012695312,9.895095825195312,0.0812530517578125,0.13800048828125
1702338742618536400,68.50053637695312,9.895339965820312,0.079345703125,0.1415863037109375
1702338742722662400,68.60466235351562,9.895339965820312,0.079345703125,0.13751220703125
1702338742826818800,68.70881884765625,9.901077270507812,0.0826873779296875,0.1351165771484375
1702338742930944800,68.81294482421875,9.899887084960938,0.08221435546875,0.1353607177734375
1702338743035071000,68.91707104492187,9.889358520507812,0.079345703125,0.140380859375
1702338743139197000,69.02119702148437,9.88671875,0.0858001708984375,0.1463623046875
1702338743243323000,69.12532299804687,9.902999877929688,0.0831756591796875,0.1343994140625
1702338743347448800,69.22944873046875,9.889358520507812,0.0850830078125,0.136077880859375
1702338743451605200,69.33360522460937,9.898452758789062,0.0781402587890625,0.140380859375
1702338743555731200,69.43773120117187,9.885772705078125,0.0767059326171875,0.140869140625
1702338743659887900,69.54188793945312,9.89630126953125,0.0800628662109375,0.132965087890625
1702338743764013800,69.64601391601562,9.899642944335938,0.07958984375,0.138702392578125
1702338743868139800,69.75013989257812,9.894378662109375,0.07574462890625,0.13775634765625
1702338743972265700,69.854265625,9.890548706054688,0.077667236328125,0.1370391845703125
1702338744076391700,69.9583916015625,9.89581298828125,0.092742919921875,0.139190673828125
1702338744180517600,70.062517578125,9.88958740234375,0.0886688232421875,0.142059326171875
1702338744284643600,70.1666435546875,9.891754150390625,0.0872344970703125,0.138946533203125
1702338744388739000,70.27073901367187,9.88983154296875,0.091552734375,0.1415863037109375
1702338744492895500,70.3748955078125,9.884567260742188,0.0991973876953125,0.141815185546875
1702338744597021400,70.479021484375,9.87835693359375,0.0855560302734375,0.138946533203125
1702338744701147600,70.58314770507812,9.88433837890625,0.08819580078125,0.1339263916015625
1702338744805273600,70.68727368164062,9.896530151367188,0.08245849609375,0.1410980224609375
1702338744909430000,70.79142993164062,9.90753173828125,0.0817413330078125,0.1454010009765625
1702338745013586400,70.89558642578125,9.901321411132812,0.080291748046875,0.1396636962890625
1702338745117743000,70.9997431640625,9.891021728515625,0.0853271484375,0.140869140625
1702338745221838300,71.10383837890625,9.893661499023438,0.0814971923828125,0.1279449462890625
1702338745325995000,71.2079951171875,9.899887084960938,0.0750274658203125,0.141815185546875
1702338745430151400,71.3121513671875,9.910415649414062,0.083892822265625,0.1454010009765625
1702338745534307800,71.41630786132812,9.954681396484375,0.080291748046875,0.1379852294921875
1702338745638403300,71.5204033203125,9.940567016601562,0.092742919921875,0.1025848388671875
1702338745742560000,71.62456005859374,10.039871215820312,0.0937042236328125,0.0408477783203125
1702338745846686000,71.72868603515624,9.807037353515625,0.098480224609375,0.256439208984375
1702338745950842400,71.83284228515625,9.879302978515625,-0.039337158203125,0.601959228515625
1702338746054968300,71.93696826171875,9.935775756835938,0.20806884765625,-0.5080718994140625
1702338746159124700,72.04112475585937,10.00396728515625,-0.1321868896484375,-0.04266357421875
1702338746263250700,72.14525073242187,9.790298461914062,-0.0001068115234375,-0.756927490234375
1702338746367407400,72.24940747070312,9.529708862304688,0.0755157470703125,-1.3242645263671875
1702338746471533300,72.353533203125,9.779998779296875,-0.1470184326171875,-1.47955322265625
1702338746732877000,72.614876953125,10.386337280273438,-0.192718505859375,-2.0564727783203125
1702338746833554400,72.71555444335938,8.805404663085938,0.6843719482421875,-1.6038665771484375
1702338746934262500,72.81626245117188,10.609588623046875,0.537567138671875,-1.76513671875
1702338747267786000,73.14978588867187,8.54888916015625,2.260162353515625,-4.9297637939453125
1702338747371912000,73.25391186523437,8.189010620117188,2.784912109375,-5.2846221923828125
1702338747476038000,73.35803784179687,7.3082122802734375,3.975341796875,-3.735260009765625
1702338747580194600,73.46219458007812,8.667098999023438,5.0150146484375,-1.5724029541015625
1702338747684289800,73.56628979492187,8.814498901367188,5.7812042236328125,0.3894805908203125
1702338747788446500,73.67044653320312,6.7191009521484375,5.9896087646484375,3.8621826171875
1702338747892542000,73.7745419921875,3.9417572021484375,5.9252471923828125,6.647430419921875
1702338747996698400,73.87869848632812,1.6448822021484375,6.29541015625,7.687103271484375
1702338748100824300,73.98282421875,0.9129180908203125,6.967559814453125,6.9427032470703125
1702338748204950300,74.0869501953125,1.7549591064453125,6.8960113525390625,8.128585815429688
1702338748309045800,74.19104565429687,2.7781219482421875,6.591888427734375,5.588836669921875
1702338748413171700,74.29517163085937,6.3960723876953125,5.586669921875,3.93994140625
1702338748517231900,74.39923193359375,6.6542510986328125,3.753753662109375,5.384246826171875
1702338748621388300,74.50338818359376,8.683135986328125,0.70745849609375,7.4731903076171875
1702338748725483800,74.60748388671875,8.912841796875,0.13916015625,2.90911865234375
1702338748829609700,74.71160961914063,9.41510009765625,-0.3647613525390625,-0.116363525390625
1702338748933705200,74.81570532226563,9.6649169921875,-0.6172027587890625,0.2317962646484375
1702338749037862000,74.91986181640625,10.321014404296875,-0.385101318359375,-0.558319091796875
1702338749142018300,75.02401831054688,9.64935302734375,-1.3144683837890625,-1.56951904296875
1702338749246144300,75.12814428710938,10.008514404296875,-1.0050811767578125,-2.7384185791015625
1702338749350270200,75.23227026367188,10.17816162109375,-0.86773681640625,-3.3516998291015625
1702338749454396200,75.33639624023438,9.999420166015625,-0.1242828369140625,-2.1464385986328125
1702338749558491600,75.44049169921875,8.488113403320312,-0.3714599609375,-2.948272705078125
1702338749662648000,75.54464794921876,10.110458374023438,-0.1309814453125,-2.494598388671875
1702338749766774000,75.64877392578126,8.630020141601562,-0.2159271240234375,-1.1318817138671875
1702338749870900200,75.75290014648438,11.1439208984375,0.34326171875,-0.359954833984375
1702338749975026200,75.85702612304688,9.822845458984375,-0.0230712890625,-0.2541961669921875
1702338750079182600,75.9611826171875,9.893905639648438,0.02191162109375,0.081756591796875
1702338750183278000,76.06527807617188,9.891983032226562,0.0180816650390625,0.1138153076171875
1702338750287434500,76.1694345703125,9.882415771484375,0.0200042724609375,0.104736328125
1702338750391560400,76.273560546875,9.880264282226562,0.0211944580078125,0.103302001953125
1702338750495656000,76.37765600585938,9.899398803710938,0.01593017578125,0.10760498046875
1702338750599782000,76.48178198242188,9.887451171875,0.0214385986328125,0.1143035888671875
1702338750703907800,76.58590795898438,9.885757446289062,0.023590087890625,0.11383056640625
1702338750808003300,76.69000341796875,9.894134521484375,0.007080078125,0.0989837646484375
1702338750912129300,76.79412939453125,9.888641357421875,0.0137786865234375,0.1018524169921875
1702338751016255200,76.89825512695313,9.9046630859375,0.011383056640625,0.1100006103515625
1702338751120381200,77.00238110351563,9.900604248046875,0.0137786865234375,0.10760498046875
1702338751224476700,77.1064765625,9.891754150390625,0.0226287841796875,0.103057861328125
1702338751328633300,77.21063330078125,9.885040283203125,0.023590087890625,0.1040191650390625
1702338751432728800,77.31472875976563,9.891036987304688,0.011627197265625,0.106170654296875
1702338751536854800,77.41885473632813,9.8994140625,0.0094757080078125,0.1095123291015625
1702338751787014100,77.66901416015625,9.844497680664062,0.023834228515625,0.112152099609375
1702338751887752700,77.76975268554688,9.842208862304688,0.0306396484375,0.1006622314453125
1702338752255752200,78.13775219726563,9.89892578125,0.0125885009765625,0.1140594482421875
1702338752359878400,78.24187841796875,9.901077270507812,0.011383056640625,0.0980224609375
1702338752464034800,78.34603491210937,9.889602661132812,0.0171356201171875,0.103057861328125
1702338752568160800,78.45016088867187,9.901321411132812,0.0092315673828125,0.0980224609375
1702338752672286700,78.55428662109375,9.885772705078125,0.0168914794921875,0.1006622314453125
1702338752776443100,78.65844311523438,9.8927001953125,0.0168914794921875,0.0992279052734375
1702338752880538600,78.76253857421875,9.89556884765625,0.0183258056640625,0.099700927734375
1702338752984695300,78.8666953125,9.88433837890625,0.0135345458984375,0.1066436767578125
1702338753088851700,78.97085180664062,9.887451171875,0.0125732421875,0.10736083984375
1702338753193008000,79.07500805664063,9.892471313476562,0.01019287109375,0.1145477294921875
1702338753297134000,79.17913403320313,9.893417358398438,0.008270263671875,0.1109466552734375
1702338753401290800,79.28329077148437,9.8931884765625,0.0154571533203125,0.1095123291015625
1702338753505386000,79.38738598632813,9.8807373046875,0.02166748046875,0.1049652099609375
1702338753609542700,79.49154272460937,9.904190063476562,0.008514404296875,0.104736328125
1702338753713699000,79.59569897460938,9.867340087890625,0.032440185546875,0.1006622314453125
1702338753817855500,79.69985546875,9.893661499023438,0.0247802734375,0.103302001953125
1702338753921981400,79.8039814453125,9.893905639648438,0.017120361328125,0.103057861328125
1702338754026107600,79.90810766601562,9.891510009765625,0.020233154296875,0.105682373046875
1702338754130264000,80.01226416015625,9.881454467773438,0.0140228271484375,0.1131134033203125
1702338754234420500,80.11642041015625,9.890548706054688,0.0152130126953125,0.1080780029296875
1702338754338516000,80.22051586914063,9.87786865234375,0.014251708984375,0.1054534912109375
1702338754442672400,80.32467236328125,9.88983154296875,0.0147247314453125,0.1083221435546875
1702338754546768000,80.42876782226563,9.880020141601562,0.0250244140625,0.108551025390625
1702338754650924500,80.53292456054687,9.875961303710938,0.0257415771484375,0.1100006103515625
1702338754755081000,80.6370810546875,9.89605712890625,0.01617431640625,0.1123809814453125
1702338754859237400,80.7412373046875,9.88983154296875,0.017852783203125,0.1111907958984375
1702338754963363300,80.84536328125,9.878585815429688,0.0197601318359375,0.1068878173828125
1702338755067550500,80.94955053710937,9.887680053710938,0.01593017578125,0.10137939453125
1702338755171676400,81.05367651367187,9.885528564453125,0.0130615234375,0.0982666015625
1702338755275832800,81.15783276367188,9.891510009765625,0.017852783203125,0.104248046875
1702338755379989200,81.2619892578125,9.865188598632812,0.02191162109375,0.103057861328125
1702338755484146000,81.36614599609375,9.875473022460938,0.02813720703125,0.0987548828125
1702338755588241400,81.47024145507812,9.885528564453125,0.0197601318359375,0.1032867431640625
1702338755692397800,81.57439770507813,9.872360229492188,0.026458740234375,0.1040191650390625
1702338755796493300,81.67849340820312,9.883132934570312,0.0197601318359375,0.099945068359375
1702338755900649700,81.78264965820313,9.897964477539062,0.0183258056640625,0.1004180908203125
1702338756004745200,81.8867451171875,9.8812255859375,0.017120361328125,0.10137939453125
1702338756108901600,81.99090161132813,9.889114379882812,0.0130615234375,0.1040191650390625
1702338756213027600,82.09502758789063,9.899169921875,0.0137786865234375,0.1085662841796875
1702338756317153800,82.19915380859375,9.887435913085938,0.020477294921875,0.1054534912109375
1702338756421279700,82.30327978515625,9.888153076171875,0.01593017578125,0.1111907958984375
1702338756525405700,82.40740576171875,9.899169921875,0.014251708984375,0.1111907958984375
1702338756629531600,82.51153173828125,9.887924194335938,0.0185699462890625,0.1049652099609375
1702338756733688000,82.61568798828125,9.899169921875,0.017608642578125,0.0963592529296875
1702338756837783600,82.71978344726563,9.910888671875,0.014251708984375,0.1037750244140625
1702338756941940000,82.82393994140625,9.897491455078125,0.0195159912109375,0.1128692626953125
1702338757046066000,82.92806591796875,9.87213134765625,0.01617431640625,0.1063995361328125
1702338757150191900,83.03219189453125,9.88958740234375,0.02215576171875,0.1080780029296875
1702338757254348500,83.1363486328125,9.894622802734375,0.0197601318359375,0.0989837646484375
1702338757358474500,83.240474609375,9.898452758789062,0.0211944580078125,0.10162353515625
1702338757462600400,83.34460034179688,9.891983032226562,0.0149688720703125,0.1083221435546875
1702338757566756900,83.4487568359375,9.901077270507812,0.020233154296875,0.103057861328125
1702338757670882800,83.5528828125,9.881698608398438,0.0192718505859375,0.10400390625
1702338757775039500,83.65703955078125,9.894149780273438,0.0195159912109375,0.0985107421875
1702338757879165400,83.76116552734375,9.902511596679688,0.020965576171875,0.0987548828125
1702338757983291400,83.86529150390625,9.894378662109375,0.014739990234375,0.1111907958984375
1702338758087417300,83.96941723632813,9.891754150390625,0.014251708984375,0.105926513671875
1702338758191543300,84.07354321289063,9.88720703125,0.02215576171875,0.090606689453125
1702338758295669200,84.17766918945313,9.888885498046875,0.0200042724609375,0.10162353515625
1702338758399825700,84.28182568359375,9.895339965820312,0.011383056640625,0.1066436767578125
1702338758503952000,84.38595190429687,9.880020141601562,0.017608642578125,0.1040191650390625
1702338758608108300,84.4901083984375,9.883132934570312,0.02166748046875,0.10162353515625
1702338758712234200,84.59423413085938,9.895339965820312,0.01904296875,0.1083221435546875
1702338758816390700,84.698390625,9.891265869140625,0.008270263671875,0.1049652099609375
1702338758920547300,84.80254736328125,9.891510009765625,0.0195159912109375,0.10113525390625
1702338759024673300,84.90667333984375,9.888397216796875,0.017364501953125,0.0946807861328125
1702338759128799200,85.01079931640625,9.89581298828125,0.0154571533203125,0.1037750244140625
1702338759232955600,85.11495556640625,9.883377075195312,0.01593017578125,0.0927734375
1702338759337081600,85.21908154296875,9.900848388671875,0.0125885009765625,0.1066436767578125
1702338759441238000,85.32323803710938,9.90203857421875,0.0137786865234375,0.104248046875
1702338759545364200,85.4273642578125,9.87811279296875,0.0128173828125,0.1080780029296875
1702338759649551000,85.53155102539063,9.8931884765625,0.0149688720703125,0.10162353515625
1702338759753677000,85.63567700195313,9.895095825195312,0.0197601318359375,0.104736328125
1702338759857833700,85.73983374023437,9.891510009765625,0.0171356201171875,0.0987548828125
1702338759961959700,85.84395971679687,9.885772705078125,0.01593017578125,0.1035308837890625
1702338760066116000,85.9481162109375,9.888641357421875,0.01568603515625,0.0992279052734375
1702338760170242000,86.05224194335938,9.899169921875,0.014251708984375,0.105682373046875
1702338760274398500,86.1563984375,9.891754150390625,0.0211944580078125,0.088226318359375
1702338760378524400,86.2605244140625,9.87213134765625,0.0211944580078125,0.10736083984375
1702338760482650400,86.364650390625,9.87811279296875,0.020721435546875,0.1035308837890625
1702338760586807000,86.46880712890625,9.8929443359375,0.0164031982421875,0.100189208984375
1702338760690994000,86.57299389648438,9.899642944335938,0.017120361328125,0.1071319580078125
1702338760795105500,86.67710546875,9.893905639648438,0.020721435546875,0.1078338623046875
1702338760899262200,86.78126220703125,9.897735595703125,0.0166473388671875,0.0987548828125
1702338761003357700,86.88535766601562,9.899169921875,0.01904296875,0.108795166015625
1702338761107514000,86.98951416015625,9.895339965820312,0.02166748046875,0.0992279052734375
1702338761211609600,87.09360961914062,9.897018432617188,0.0135345458984375,0.11334228515625
1702338761315796500,87.19779638671875,9.886962890625,0.0137786865234375,0.109283447265625
1702338761419922400,87.30192236328125,9.88720703125,0.0185699462890625,0.1111907958984375
1702338761524079000,87.4060791015625,9.892227172851562,0.0135345458984375,0.1107177734375
1702338761628174600,87.51017456054687,9.89892578125,0.01593017578125,0.106414794921875
1702338761732331000,87.6143310546875,9.89630126953125,0.014251708984375,0.104736328125
1702338761836426500,87.71842651367187,9.899398803710938,0.0125885009765625,0.100189208984375
1702338761940583000,87.8225830078125,9.894622802734375,0.0200042724609375,0.0975494384765625
1702338762044678400,87.92667846679687,9.899642944335938,0.0128173828125,0.1037750244140625
1702338762148834800,88.03083471679687,9.899398803710938,0.0123443603515625,0.1049652099609375
1702338762252960800,88.13496069335937,9.887451171875,0.014495849609375,0.1126251220703125
1702338762357117400,88.23911743164062,9.894378662109375,0.018798828125,0.1100006103515625
1702338762461243400,88.34324340820312,9.891754150390625,0.0135345458984375,0.0977935791015625
1702338762565399800,88.44739990234375,9.8927001953125,0.017608642578125,0.1032867431640625
1702338762669556200,88.55155615234375,9.898452758789062,0.019287109375,0.1052093505859375
1702338762773713000,88.655712890625,9.8931884765625,0.0152130126953125,0.0963592529296875
1702338762877838800,88.7598388671875,9.892471313476562,0.00970458984375,0.1009063720703125
1702338762981995300,88.86399536132812,9.892471313476562,0.01617431640625,0.1023406982421875
1702338763086090800,88.9680908203125,9.897720336914062,0.0152130126953125,0.1097564697265625
1702338763190247200,89.0722470703125,9.8929443359375,0.0106658935546875,0.1006622314453125
1702338763294373000,89.176373046875,9.9049072265625,0.0109100341796875,0.0963592529296875
1702338763398529800,89.28052978515625,9.897964477539062,0.019287109375,0.1020965576171875
1702338763502655700,89.38465576171875,9.891510009765625,0.0211944580078125,0.09564208984375
1702338763606781700,89.48878173828125,9.885055541992188,0.0178375244140625,0.1023406982421875
1702338763710907600,89.59290771484375,9.891510009765625,0.014251708984375,0.10162353515625
1702338763815064000,89.69706396484375,9.90228271484375,0.0183258056640625,0.1004180908203125
1702338763919159600,89.80115966796875,9.903472900390625,0.0149688720703125,0.093963623046875
1702338764023316000,89.90531591796875,9.897491455078125,0.014739990234375,0.0961151123046875
1702338764127442200,90.00944213867187,9.896530151367188,0.0152130126953125,0.0963592529296875
1702338764231598600,90.1135986328125,9.886245727539062,0.00994873046875,0.0992279052734375
1702338764335724500,90.217724609375,9.899169921875,0.0121002197265625,0.105682373046875
1702338764439850500,90.3218505859375,9.892471313476562,0.0097198486328125,0.1018524169921875
1702338764543976400,90.4259765625,9.88720703125,0.0087432861328125,0.0994720458984375
1702338764648132900,90.5301328125,9.891036987304688,0.014007568359375,0.100189208984375
1702338764752259000,90.63425903320312,9.897018432617188,0.0195159912109375,0.1006622314453125
1702338764856415500,90.73841552734375,9.896530151367188,0.0154571533203125,0.105926513671875
1702338764960572000,90.84257202148437,9.87762451171875,0.0216827392578125,0.10113525390625
1702338765064697900,90.94669775390625,9.895584106445312,0.0133056640625,0.1068878173828125
1702338765168854500,91.0508544921875,9.893661499023438,0.00970458984375,0.105926513671875
1702338765273011000,91.15501098632812,9.897018432617188,0.0130615234375,0.094207763671875
1702338765377137000,91.25913696289062,9.903717041015625,0.0137786865234375,0.099945068359375
1702338765481262800,91.36326293945312,9.897964477539062,0.02215576171875,0.1083221435546875
1702338765585388800,91.46738891601562,9.905624389648438,0.0123443603515625,0.1047210693359375
1702338765689514800,91.5715146484375,9.912078857421875,0.01617431640625,0.093963623046875
1702338765793640700,91.675640625,9.88409423828125,0.0152130126953125,0.1037750244140625
1702338765897766700,91.7797666015625,9.88671875,0.0077972412109375,0.0992279052734375
1702338766001923300,91.88392333984375,9.901077270507812,0.0123443603515625,0.1009063720703125
1702338766106049300,91.98804931640625,9.897491455078125,0.0135345458984375,0.105682373046875
1702338766210175200,92.09217529296875,9.893661499023438,0.01593017578125,0.1037750244140625
1702338766314331600,92.19633154296875,9.887924194335938,0.011871337890625,0.0963592529296875
1702338766418457600,92.30045751953125,9.891510009765625,0.01593017578125,0.105682373046875
1702338766522644700,92.40464477539062,9.886489868164062,0.0140228271484375,0.0989837646484375
1702338766626770700,92.50877075195312,9.881942749023438,0.01904296875,0.1049652099609375
1702338766730927000,92.61292700195312,9.899169921875,0.017608642578125,0.1037750244140625
1702338766835053000,92.71705297851562,9.885284423828125,0.0257415771484375,0.0946807861328125
1702338766939209700,92.82120971679687,9.891265869140625,0.01568603515625,0.096832275390625
1702338767043335700,92.92533569335937,9.8809814453125,0.011627197265625,0.10736083984375
1702338767147492000,93.0294921875,9.906814575195312,0.0180816650390625,0.099456787109375
1702338767251587600,93.13358764648437,9.880020141601562,0.02789306640625,0.103057861328125
1702338767355744000,93.23774389648437,9.875228881835938,0.0214385986328125,0.0961151123046875
1702338767459839500,93.34183959960937,9.873794555664062,0.0228729248046875,0.102813720703125
1702338767563996000,93.44599584960937,9.902755737304688,0.01641845703125,0.10137939453125
1702338767668091400,93.55009130859375,9.897720336914062,0.01568603515625,0.104736328125
1702338767772248000,93.654248046875,9.896530151367188,0.0121002197265625,0.1080780029296875
1702338767876374000,93.7583740234375,9.901321411132812,0.01593017578125,0.0992279052734375
1702338767980500000,93.8625,9.877151489257812,0.0271759033203125,0.1052093505859375
1702338768084626000,93.9666259765625,9.879547119140625,0.029815673828125,0.1009063720703125
1702338768188752000,94.070751953125,9.88360595703125,0.017364501953125,0.100189208984375
1702338768292877800,94.1748779296875,9.896774291992188,0.014495849609375,0.10186767578125
1702338768397034200,94.2790341796875,9.911849975585938,0.0130615234375,0.1100006103515625
1702338768501129700,94.38312963867187,9.901565551757812,0.017608642578125,0.102813720703125
1702338768605286400,94.48728637695312,9.89007568359375,0.0180816650390625,0.102813720703125
1702338768709412400,94.59141235351562,9.877151489257812,0.0140228271484375,0.093719482421875
1702338768813538300,94.69553833007812,9.8388671875,0.0393829345703125,0.0841522216796875
1702338768917633800,94.7996337890625,9.90753173828125,0.0317230224609375,0.105926513671875
1702338769021759700,94.903759765625,9.8927001953125,0.017120361328125,0.1020965576171875
1702338769125885700,95.0078857421875,9.89581298828125,0.014739990234375,0.114776611328125
1702338769230011600,95.11201171875,9.882659912109375,0.014495849609375,0.10784912109375
1702338769334107100,95.21610717773437,9.869491577148438,0.031005859375,0.11358642578125
1702338769438233000,95.32023315429687,9.86279296875,0.0214385986328125,0.1035308837890625
1702338769542328600,95.42432861328125,9.898452758789062,0.014251708984375,0.1066436767578125
1702338769646485000,95.52848510742187,9.886245727539062,0.017120361328125,0.0963592529296875
1702338769750611000,95.63261083984375,9.888153076171875,0.017608642578125,0.100189208984375
1702338769854767600,95.736767578125,9.889114379882812,0.0123443603515625,0.0918121337890625
1702338769958862800,95.84086279296875,9.897964477539062,0.020721435546875,0.0932464599609375
1702338770062989000,95.94498901367187,9.902511596679688,0.0075531005859375,0.1035308837890625
1702338770167145500,96.0491455078125,9.881942749023438,0.01904296875,0.1023406982421875
1702338770271271400,96.153271484375,9.879776000976562,0.0271759033203125,0.10760498046875
1702338770375397400,96.2573974609375,9.8809814453125,0.0183258056640625,0.1111907958984375
1702338770479523300,96.3615234375,9.894622802734375,0.0180816650390625,0.09490966796875
1702338770583649300,96.46564916992187,9.89892578125,0.017852783203125,0.105682373046875
1702338770687775200,96.56977514648437,9.887680053710938,0.0183258056640625,0.099700927734375
1702338770791901200,96.67390112304687,9.885772705078125,0.020477294921875,0.10137939453125
1702338770896027400,96.77802734375,9.875244140625,0.0164031982421875,0.094207763671875
1702338771000122600,96.88212255859375,9.891510009765625,0.0121002197265625,0.104248046875
1702338771104279300,96.986279296875,9.889602661132812,0.0121002197265625,0.1006622314453125
1702338771208374800,97.09037475585937,9.886962890625,0.0140228271484375,0.0944366455078125
1702338771312531200,97.19453125,9.887435913085938,0.0137786865234375,0.1066436767578125
1702338771416657200,97.2986572265625,9.89581298828125,0.0077972412109375,0.097320556640625
1702338771520783000,97.402783203125,9.899887084960938,0.008514404296875,0.10711669921875
1702338771624909000,97.50690893554687,9.89007568359375,0.0228729248046875,0.1023406982421875
1702338771729065500,97.6110654296875,9.894622802734375,0.00970458984375,0.1004180908203125
1702338771833191700,97.71519165039062,9.889358520507812,0.0135345458984375,0.1049652099609375
1702338771937348000,97.81934814453125,9.8931884765625,0.0137786865234375,0.1068878173828125
1702338772041475300,97.92347534179687,9.899398803710938,0.0154571533203125,0.1040191650390625
1702338772145632000,98.02763208007812,9.893905639648438,0.017364501953125,0.1023406982421875
1702338772249758000,98.13175805664062,9.88409423828125,0.0137786865234375,0.1080780029296875
1702338772353914400,98.23591430664062,9.895339965820312,0.01019287109375,0.1018524169921875
1702338772458040300,98.34004028320312,9.891738891601562,0.0166473388671875,0.1044921875
1702338772562166300,98.44416625976562,9.896774291992188,0.0164031982421875,0.0982666015625
1702338772666292200,98.54829223632812,9.893661499023438,0.0197601318359375,0.1066436767578125
1702338772770449000,98.65244897460937,9.888641357421875,0.0211944580078125,0.09564208984375
1702338772874574800,98.75657495117187,9.902755737304688,0.0135345458984375,0.0977935791015625
1702338772978761700,98.86076171875,9.905624389648438,0.011627197265625,0.0958709716796875
1702338773082887700,98.9648876953125,9.899169921875,0.0166473388671875,0.1085662841796875
1702338773187013600,99.069013671875,9.889114379882812,0.01593017578125,0.099700927734375
1702338773291139600,99.1731396484375,9.895584106445312,0.0130615234375,0.10186767578125
1702338773395265500,99.277265625,9.898681640625,0.01019287109375,0.1044921875
1702338773499391700,99.38139184570312,9.886962890625,0.020477294921875,0.10736083984375
1702338773603517700,99.485517578125,9.893417358398438,0.014739990234375,0.09564208984375
1702338773707643600,99.5896435546875,9.888641357421875,0.008514404296875,0.10113525390625
1702338773811800000,99.69380004882812,9.888641357421875,0.0137786865234375,0.1066436767578125
1702338773915895600,99.7978955078125,9.890548706054688,0.0092315673828125,0.1020965576171875
1702338774020021500,99.902021484375,9.902511596679688,0.01904296875,0.1071319580078125
1702338774124147500,100.0061474609375,9.891983032226562,0.020477294921875,0.10162353515625
1702338774228304000,100.11030395507812,9.889602661132812,0.020721435546875,0.0966033935546875
1702338774332430000,100.21443017578125,9.88671875,0.019287109375,0.0977935791015625
1702338774436586500,100.31858642578125,9.886962890625,0.0149688720703125,0.0963592529296875
1702338774540682000,100.42268188476562,9.891983032226562,0.0121002197265625,0.0987548828125
1702338774644838400,100.52683837890625,9.904190063476562,0.00970458984375,0.0934906005859375
1702338774748994800,100.63099487304687,9.8931884765625,0.011383056640625,0.104736328125
1702338774853151500,100.7351513671875,9.891983032226562,0.011871337890625,0.100189208984375
1702338774957247000,100.8392470703125,9.888153076171875,0.0180816650390625,0.10137939453125
1702338775061403400,100.9434033203125,9.890792846679688,0.0149688720703125,0.0987396240234375
1702338775165529300,101.047529296875,9.899398803710938,0.0154571533203125,0.1066436767578125
1702338775269655300,101.1516552734375,9.878585815429688,0.0286102294921875,0.1004180908203125
1702338775373781200,101.25578125,9.871170043945312,0.020233154296875,0.1011505126953125
1702338775477907200,101.3599072265625,9.887680053710938,0.011627197265625,0.10162353515625
1702338775582033200,101.464033203125,9.884323120117188,0.011138916015625,0.1023406982421875
1702338775686189800,101.56818994140625,9.905868530273438,0.0154571533203125,0.099945068359375
1702338775790315800,101.67231567382812,9.883377075195312,0.017852783203125,0.103057861328125
1702338775894441700,101.77644165039062,9.88385009765625,0.0228729248046875,0.099700927734375
1702338775998567700,101.88056762695312,9.873321533203125,0.020477294921875,0.096588134765625
1702338776102693600,101.98469360351562,9.886245727539062,0.0149688720703125,0.1052093505859375
1702338776206789000,102.0887890625,9.89556884765625,0.0137786865234375,0.112396240234375
1702338776310915000,102.1929150390625,9.880020141601562,0.005157470703125,0.10736083984375
1702338776415041000,102.297041015625,9.894378662109375,0.0140228271484375,0.1080780029296875
1702338776519167000,102.4011669921875,9.884323120117188,0.014739990234375,0.0930023193359375
1702338776623293000,102.50529296875,9.90179443359375,0.00732421875,0.10162353515625
1702338776727419000,102.6094189453125,9.905380249023438,0.0092315673828125,0.1044921875
1702338776831514400,102.71351440429687,9.887435913085938,0.0142669677734375,0.1097564697265625
1702338776935671000,102.81767114257812,9.882415771484375,0.0130615234375,0.1104736328125
1702338777039797000,102.921796875,9.906585693359375,0.014495849609375,0.1009063720703125
1702338777143953400,103.02595336914062,9.901321411132812,0.0154571533203125,0.1035308837890625
1702338777248079400,103.13007934570312,9.8929443359375,0.011627197265625,0.096832275390625
1702338777352235800,103.23423583984375,9.897979736328125,0.01568603515625,0.105682373046875
1702338777456331300,103.33833129882812,9.89007568359375,0.01593017578125,0.1023406982421875
1702338777560488000,103.44248803710937,9.90179443359375,0.02166748046875,0.1052093505859375
1702338777664614000,103.54661376953125,9.8807373046875,0.0152130126953125,0.0989837646484375
1702338777768770300,103.65077026367187,9.88983154296875,0.01593017578125,0.1049652099609375
1702338777872896300,103.75489624023437,9.883377075195312,0.0168914794921875,0.1035308837890625
1702338777977022200,103.85902221679687,9.8924560546875,0.0214385986328125,0.1044921875
1702338778081148200,103.96314819335937,9.894866943359375,0.0166473388671875,0.1068878173828125
1702338778185274000,104.06727416992187,9.89581298828125,0.0197601318359375,0.0975494384765625
1702338778289400000,104.17140014648437,9.891510009765625,0.0135498046875,0.0982666015625
1702338778393526300,104.2755263671875,9.894134521484375,0.0130615234375,0.0961151123046875
1702338778497652200,104.37965234375,9.891754150390625,0.014495849609375,0.102569580078125
1702338778601808600,104.48380859375,9.899169921875,0.0094757080078125,0.0949249267578125
1702338778705904000,104.58790405273437,9.903945922851562,0.0149688720703125,0.1049652099609375
1702338778810030000,104.69203002929687,9.873321533203125,0.0254974365234375,0.1009063720703125
1702338778914156000,104.79615600585937,9.885284423828125,0.0300445556640625,0.1018524169921875
1702338779018312400,104.9003125,9.909927368164062,0.0166473388671875,0.1054534912109375
1702338779122408000,105.00440795898437,9.891754150390625,0.0152130126953125,0.10162353515625
1702338779226564600,105.10856469726562,9.88671875,0.0106658935546875,0.1035308837890625
1702338779330690600,105.21269067382812,9.890792846679688,0.011627197265625,0.1004180908203125
1702338779434816500,105.31681640625,9.899642944335938,0.0125732421875,0.1023406982421875
1702338779538973000,105.42097290039062,9.886245727539062,0.017852783203125,0.0992279052734375
1702338779643099000,105.52509887695312,9.886489868164062,0.0149688720703125,0.10162353515625
1702338779747194400,105.6291943359375,9.88433837890625,0.0140228271484375,0.0946807861328125
1702338779851320300,105.7333203125,9.899398803710938,0.0166473388671875,0.10137939453125
1702338779955446300,105.8374462890625,9.895095825195312,0.0166473388671875,0.09539794921875
1702338780059603000,105.94160302734375,9.889358520507812,0.0185546875,0.09564208984375
1702338780163729000,106.04572900390625,9.890548706054688,0.02215576171875,0.0977935791015625
1702338780267885300,106.14988525390625,9.89581298828125,0.0075531005859375,0.099945068359375
1702338780371980800,106.25398071289062,9.889114379882812,0.0111541748046875,0.1004180908203125
1702338780476137200,106.35813720703125,9.896774291992188,0.0164031982421875,0.0997161865234375
1702338780580263200,106.46226318359375,9.87811279296875,0.0164031982421875,0.100189208984375
1702338780684419800,106.566419921875,9.88720703125,0.0089874267578125,0.104736328125
1702338780788515000,106.67051513671875,9.885055541992188,0.014251708984375,0.099945068359375
1702338780892671700,106.77467163085937,9.911376953125,0.011627197265625,0.10137939453125
1702338780996797700,106.87879760742187,9.887435913085938,0.01617431640625,0.1037750244140625
1702338781100923600,106.98292358398437,9.897018432617188,0.01617431640625,0.099945068359375
1702338781205049600,107.08704956054687,9.90203857421875,0.018798828125,0.105926513671875
1702338781309206000,107.1912060546875,9.882171630859375,0.01568603515625,0.1109466552734375
1702338781413301500,107.29530151367187,9.88409423828125,0.011383056640625,0.102569580078125
1702338781517458000,107.3994580078125,9.894866943359375,0.0061187744140625,0.0987548828125
1702338781621584100,107.50358422851562,9.895584106445312,0.01617431640625,0.103057861328125
1702338781725710000,107.6077099609375,9.8929443359375,0.011871337890625,0.096832275390625
1702338781829836000,107.7118359375,9.898452758789062,0.0118560791015625,0.1035308837890625
1702338781933992400,107.81599243164062,9.888153076171875,0.0200042724609375,0.0961151123046875
1702338782038112000,107.92011206054687,9.885040283203125,0.011627197265625,0.104736328125
1702338782142238000,108.02423803710937,9.899169921875,0.0121002197265625,0.102813720703125
1702338782246364200,108.1283642578125,9.891510009765625,0.0152130126953125,0.09515380859375
1702338782350520600,108.2325205078125,9.902511596679688,0.0128173828125,0.1020965576171875
1702338782454646500,108.336646484375,9.8804931640625,0.01617431640625,0.0980377197265625
1702338782558772500,108.4407724609375,9.88433837890625,0.0197601318359375,0.1154937744140625
1702338782662898400,108.5448984375,9.894622802734375,0.0106658935546875,0.10711669921875
1702338782767054800,108.64905493164062,9.892715454101562,0.018798828125,0.1054534912109375
1702338782871181000,108.75318115234376,9.888641357421875,0.018798828125,0.1083221435546875
1702338782975307000,108.85730712890626,9.897247314453125,0.00994873046875,0.0966033935546875
1702338783079433000,108.96143286132812,9.888397216796875,0.0226287841796875,0.10162353515625
1702338783183589400,109.06558935546875,9.89007568359375,0.019287109375,0.102569580078125
1702338783287715300,109.16971533203125,9.890792846679688,0.020233154296875,0.1023406982421875
1702338783391871700,109.27387182617187,9.8690185546875,0.026214599609375,0.102813720703125
1702338783496028400,109.3780283203125,9.87811279296875,0.0243072509765625,0.097076416015625
1702338783600154400,109.482154296875,9.88360595703125,0.017608642578125,0.1035308837890625
1702338783704280300,109.5862802734375,9.891036987304688,0.0171356201171875,0.1054534912109375
1702338783808406300,109.69040625,9.885284423828125,0.01617431640625,0.105926513671875
1702338783912532200,109.7945322265625,9.88433837890625,0.0211944580078125,0.10113525390625
1702338784016688600,109.89868872070312,9.897247314453125,0.023834228515625,0.10760498046875
1702338784120814800,110.00281494140626,9.887451171875,0.0195159912109375,0.099945068359375
1702338784224971300,110.10697119140625,9.889114379882812,0.0094757080078125,0.1037750244140625
1702338784329097200,110.21109716796875,9.887680053710938,0.014251708984375,0.0985107421875
1702338784433223200,110.31522314453125,9.888397216796875,0.0128173828125,0.104736328125
1702338784537318700,110.41931860351562,9.900833129882812,0.0109100341796875,0.0975494384765625
1702338784641475000,110.52347509765625,9.900604248046875,0.0125885009765625,0.0975494384765625
1702338784745601000,110.62760107421875,9.899169921875,0.02191162109375,0.10113525390625
1702338784849757700,110.7317578125,9.896774291992188,0.0140228271484375,0.1009063720703125
1702338784953914000,110.8359140625,9.891754150390625,0.0128173828125,0.1004180908203125
1702338785058070500,110.94007055664062,9.89031982421875,0.0080413818359375,0.1035308837890625
1702338785162196500,111.04419653320312,9.893661499023438,0.0154571533203125,0.103302001953125
1702338785266353200,111.14835327148438,9.886245727539062,0.0137786865234375,0.1056976318359375
1702338785370479000,111.25247900390625,9.8927001953125,0.0154571533203125,0.10113525390625
1702338785474635500,111.35663549804687,9.884811401367188,0.017852783203125,0.09564208984375
1702338785578731000,111.46073095703125,9.897964477539062,0.0228729248046875,0.09539794921875
1702338785682918000,111.56491796875,9.89007568359375,0.0168914794921875,0.0994720458984375
1702338785787044000,111.66904418945313,9.886489868164062,0.017120361328125,0.0982666015625
1702338785891200500,111.77320043945312,9.895095825195312,0.01019287109375,0.0920562744140625
1702338785995326500,111.87732641601562,9.897964477539062,0.017852783203125,0.102813720703125
1702338786099452400,111.98145239257812,9.89605712890625,0.0094757080078125,0.111663818359375
1702338786203578400,112.08557836914062,9.887924194335938,0.01593017578125,0.1040191650390625
1702338786307734800,112.18973486328125,9.88360595703125,0.020233154296875,0.0944366455078125
1702338786411830300,112.29383032226562,9.88409423828125,0.0250244140625,0.0987548828125
1702338786515987000,112.39798706054688,9.89581298828125,0.017364501953125,0.09564208984375
1702338786620113000,112.50211279296875,9.894622802734375,0.01593017578125,0.099700927734375
1702338786724269300,112.60626928710937,9.900833129882812,0.0130615234375,0.099700927734375
1702338786828395300,112.71039526367187,9.894851684570312,0.0154571533203125,0.100189208984375
1702338786932582400,112.81458251953126,9.884811401367188,0.01593017578125,0.103057861328125
1702338787036738800,112.91873876953125,9.901321411132812,0.018798828125,0.0975494384765625
1702338787140864800,113.02286474609375,9.886489868164062,0.0226287841796875,0.103057861328125
1702338787245021200,113.12702124023437,9.891510009765625,0.011627197265625,0.10137939453125
1702338787349177900,113.231177734375,9.8931884765625,0.0109100341796875,0.1049652099609375
1702338787453334300,113.33533422851562,9.882171630859375,0.014251708984375,0.10784912109375
1702338787557460200,113.43946020507812,9.89556884765625,0.0137786865234375,0.1018524169921875
1702338787661586200,113.54358618164062,9.894134521484375,0.0135345458984375,0.1035308837890625
1702338787765742600,113.64774267578125,9.889602661132812,0.0238189697265625,0.1006622314453125
1702338787869899300,113.75189916992187,9.8929443359375,0.0147247314453125,0.0958709716796875
1702338787974055700,113.8560556640625,9.90203857421875,0.0118560791015625,0.10137939453125
1702338788078181600,113.960181640625,9.884567260742188,0.0132904052734375,0.099945068359375
1702338788182338000,114.06433813476562,9.894622802734375,0.0168914794921875,0.1006622314453125
1702338788286433500,114.16843359375,9.898208618164062,0.01617431640625,0.104736328125
1702338788390590200,114.27259008789062,9.890548706054688,0.011627197265625,0.103057861328125
1702338788494716200,114.37671606445312,9.8929443359375,0.017608642578125,0.105926513671875
1702338788598872600,114.48087255859375,9.88409423828125,0.008758544921875,0.10137939453125
1702338788703029000,114.58502905273437,9.88360595703125,0.00994873046875,0.1097564697265625
1702338788807216000,114.68921606445312,9.896774291992188,0.017852783203125,0.1040191650390625
1702338788911342000,114.79334204101562,9.897247314453125,0.018798828125,0.1066436767578125
1702338789015468000,114.89746801757812,9.912567138671875,0.0109100341796875,0.1107177734375
1702338789119594000,115.00159399414062,9.8807373046875,0.0257415771484375,0.103302001953125
1702338789223750400,115.10575048828125,9.874282836914062,0.0209503173828125,0.10736083984375
1702338789327876600,115.20987670898438,9.894378662109375,0.02166748046875,0.10186767578125
1702338789432033000,115.31403295898437,9.895339965820312,0.01019287109375,0.102813720703125
1702338789536128500,115.41812841796875,9.895095825195312,0.0197601318359375,0.1040191650390625
1702338789640285000,115.52228491210937,9.897964477539062,0.0121002197265625,0.100189208984375
1702338789744411000,115.62641088867187,9.888870239257812,0.01593017578125,0.0980377197265625
1702338789848567300,115.7305673828125,9.89581298828125,0.011627197265625,0.102569580078125
1702338789952724000,115.83472387695312,9.883132934570312,0.014495849609375,0.10137939453125
1702338790056880400,115.93888037109375,9.894622802734375,0.00946044921875,0.1040191650390625
1702338790161036800,116.04303686523437,9.888397216796875,0.0123443603515625,0.1037750244140625
1702338790265193500,116.147193359375,9.8929443359375,0.0140228271484375,0.11334228515625
1702338790369350000,116.25134985351562,9.894866943359375,0.01953125,0.1020965576171875
1702338790473506300,116.35550634765625,9.8812255859375,0.0223846435546875,0.1009063720703125
1702338790577632300,116.45963232421875,9.880508422851562,0.0228729248046875,0.1052093505859375
1702338790681789000,116.56378881835937,9.8931884765625,0.0200042724609375,0.1100006103515625
1702338790785945300,116.6679453125,9.888870239257812,0.0149688720703125,0.10760498046875
1702338790890101800,116.77210180664062,9.877395629882812,0.0133056640625,0.111907958984375
1702338790994258400,116.87625854492188,9.881698608398438,0.01568603515625,0.1104736328125
1702338791098414800,116.98041479492187,9.8807373046875,0.0168914794921875,0.10711669921875
1702338791202540800,117.08454077148437,9.900115966796875,0.0094757080078125,0.1054534912109375
1702338791306697200,117.188697265625,9.901077270507812,0.0178375244140625,0.097076416015625
1702338791410854000,117.29285400390626,9.884811401367188,0.0211944580078125,0.0989837646484375
1702338791515010300,117.39701025390625,9.87786865234375,0.020721435546875,0.1040191650390625
1702338791619136300,117.50113623046875,9.888870239257812,0.014739990234375,0.1004180908203125
1702338791723323400,117.60532348632813,9.897491455078125,0.0133056640625,0.10186767578125
1702338791827479800,117.70947973632812,9.8809814453125,0.0254974365234375,0.1037750244140625
1702338791931636200,117.81363623046875,9.882888793945312,0.0183258056640625,0.1100006103515625
1702338792035821600,117.91782153320312,9.888870239257812,0.017120361328125,0.10113525390625
1702338792139978000,118.02197802734375,9.888153076171875,0.0130615234375,0.104736328125
1702338792244104000,118.12610400390625,9.886245727539062,0.011383056640625,0.1023406982421875
1702338792348260600,118.23026049804687,9.886245727539062,0.0106658935546875,0.1035308837890625
1702338792452386600,118.33438647460937,9.87835693359375,0.020477294921875,0.0958709716796875
1702338792556543000,118.43854296875,9.87811279296875,0.0231170654296875,0.09539794921875
1702338792660699600,118.54269970703125,9.889114379882812,0.0252685546875,0.0949249267578125
1702338792764856000,118.64685595703125,9.888397216796875,0.0118560791015625,0.1049652099609375
1702338792868982000,118.75098193359375,9.894851684570312,0.014007568359375,0.0982666015625
1702338792973108000,118.85510791015625,9.900360107421875,0.009002685546875,0.1035308837890625
1702338793077264400,118.95926440429687,9.885528564453125,0.0137786865234375,0.0977935791015625
1702338793181421000,119.06342114257812,9.885055541992188,0.0137786865234375,0.09539794921875
1702338793285577500,119.16757739257812,9.888870239257812,0.011383056640625,0.096588134765625
1702338793389734000,119.27173388671875,9.898208618164062,0.017608642578125,0.0994720458984375
1702338793493859800,119.37585986328125,9.889114379882812,0.017608642578125,0.0977935791015625
1702338793598047000,119.480046875,9.901321411132812,0.0130615234375,0.0985107421875
1702338793702173000,119.5841728515625,9.894378662109375,0.01568603515625,0.0980377197265625
1702338793806329300,119.68832934570312,9.88409423828125,0.017608642578125,0.0949249267578125
1702338793910486000,119.79248608398437,9.896530151367188,0.011138916015625,0.09539794921875
1702338794014673000,119.8966728515625,9.894866943359375,0.014251708984375,0.0989837646484375
1702338794118798800,120.000798828125,9.879791259765625,0.029327392578125,0.0946807861328125
1702338794222955300,120.10495532226562,9.8809814453125,0.0245513916015625,0.10113525390625
1702338794327081500,120.20908154296875,9.889358520507812,0.0166473388671875,0.1111907958984375
1702338794431238000,120.31323779296875,9.887924194335938,0.0166473388671875,0.10736083984375
1702338794535363800,120.41736376953125,9.88958740234375,0.019287109375,0.108795166015625
1702338794639520300,120.52152026367187,9.8929443359375,0.01593017578125,0.099945068359375
1702338794743646200,120.62564624023437,9.88720703125,0.0089874267578125,0.097076416015625
1702338794847803000,120.72980297851562,9.90155029296875,0.0128173828125,0.100433349609375
1702338794951928800,120.8339287109375,9.895095825195312,0.0214385986328125,0.1056976318359375
1702338795056115700,120.93811572265625,9.89581298828125,0.0154571533203125,0.106414794921875
1702338795160272400,121.0422724609375,9.887435913085938,0.0154571533203125,0.0987548828125
1702338795264428800,121.1464287109375,9.893173217773438,0.020233154296875,0.10711669921875
1702338795368585200,121.25058520507812,9.894622802734375,0.011627197265625,0.0982666015625
1702338795472741600,121.35474169921875,9.899398803710938,0.017852783203125,0.1054534912109375
1702338795576928800,121.4589287109375,9.895584106445312,0.026214599609375,0.0985107421875
1702338795681116000,121.56311596679687,9.8931884765625,0.01617431640625,0.1025848388671875
1702338795785272300,121.66727221679687,9.891983032226562,0.0130615234375,0.0994720458984375
1702338795889428700,121.7714287109375,9.89556884765625,0.0166473388671875,0.099456787109375
1702338795993585200,121.87558520507812,9.884811401367188,0.0197601318359375,0.104736328125
1702338796097741800,121.97974194335937,9.88433837890625,0.020233154296875,0.1035308837890625
1702338796201898200,122.08389819335937,9.893905639648438,0.01593017578125,0.10162353515625
1702338796306085400,122.18808544921875,9.87811279296875,0.0123443603515625,0.105926513671875
1702338796410241800,122.29224169921875,9.892471313476562,0.0240631103515625,0.1104736328125
1702338796514398200,122.39639819335937,9.899169921875,0.01904296875,0.1080780029296875
1702338796618524200,122.50052416992187,9.897491455078125,0.0243072509765625,0.0958709716796875
1702338796722680800,122.60468090820312,9.898452758789062,0.014251708984375,0.0989837646484375
1702338796826806800,122.70880688476562,9.893661499023438,0.017364501953125,0.096588134765625
1702338796930963200,122.81296313476562,9.896286010742188,0.01593017578125,0.0961151123046875
1702338797035119600,122.91711962890625,9.901321411132812,0.0185699462890625,0.1006622314453125
1702338797139306800,123.021306640625,9.886489868164062,0.0183258056640625,0.1025848388671875
1702338797243432700,123.1254326171875,9.885040283203125,0.0133056640625,0.10186767578125
1702338797347589000,123.22958911132812,9.887435913085938,0.017608642578125,0.1035308837890625
1702338797451745800,123.33374584960937,9.885040283203125,0.0180816650390625,0.1037750244140625
1702338797555932700,123.4379326171875,9.884811401367188,0.0128173828125,0.099456787109375
1702338797660058600,123.54205859375,9.881454467773438,0.020477294921875,0.1066436767578125
1702338797764184600,123.6461845703125,9.879302978515625,0.02191162109375,0.10784912109375
1702338797868310500,123.750310546875,9.87762451171875,0.020477294921875,0.1047210693359375
1702338797972467200,123.85446728515625,9.905868530273438,0.0140228271484375,0.1032867431640625
1702338798076593200,123.95859326171875,9.896774291992188,0.0185699462890625,0.1035308837890625
1702338798180749600,124.06274951171875,9.896774291992188,0.017608642578125,0.1100006103515625
1702338798284875500,124.16687548828125,9.882415771484375,0.0211944580078125,0.106170654296875
1702338798389001500,124.27100146484375,9.885284423828125,0.01904296875,0.1054534912109375
1702338798493158100,124.375158203125,9.887924194335938,0.0195159912109375,0.11334228515625
1702338798597345000,124.47934497070312,9.893661499023438,0.023834228515625,0.1109619140625
1702338798701471000,124.58347094726562,9.883621215820312,0.0290985107421875,0.10736083984375
1702338798805627400,124.68762744140625,9.893661499023438,0.0168914794921875,0.1011505126953125
1702338798909753600,124.79175366210937,9.893905639648438,0.0168914794921875,0.1068878173828125
1702338799013910000,124.89590991210937,9.898208618164062,0.014739990234375,0.10162353515625
1702338799118036000,125.00003588867187,9.90228271484375,0.014495849609375,0.1006622314453125
1702338799222192400,125.1041923828125,9.898681640625,0.0140228271484375,0.1054534912109375
1702338799326349000,125.20834912109375,9.885055541992188,0.0228729248046875,0.102813720703125
1702338799430505500,125.31250537109375,9.889358520507812,0.014495849609375,0.1011505126953125
1702338799534631400,125.41663134765625,9.903228759765625,0.017608642578125,0.1088104248046875
1702338799638787800,125.52078784179687,9.892471313476562,0.0164031982421875,0.103057861328125
1702338799742944500,125.62494458007812,9.903228759765625,0.0123443603515625,0.1025848388671875
1702338799847101000,125.72910083007812,9.892471313476562,0.00994873046875,0.10736083984375
1702338799951227000,125.83322680664062,9.886489868164062,0.0226287841796875,0.0980377197265625
1702338800055383300,125.93738330078125,9.890792846679688,0.0231170654296875,0.096832275390625
1702338800159509200,126.04150927734375,9.887435913085938,0.017364501953125,0.103302001953125
1702338800263666000,126.145666015625,9.885284423828125,0.017364501953125,0.1104736328125
1702338800367791900,126.2497919921875,9.88671875,0.017852783203125,0.1071319580078125
1702338800471948300,126.3539482421875,9.898681640625,0.0147247314453125,0.1044921875
1702338800576043800,126.45804370117187,9.8809814453125,0.0125732421875,0.1116790771484375
1702338800680230700,126.56223071289062,9.88720703125,0.0171356201171875,0.1052093505859375
1702338800784356900,126.66635693359375,9.88671875,0.01617431640625,0.1052093505859375
1702338800888513300,126.77051318359375,9.886489868164062,0.017120361328125,0.104248046875
1702338800992608800,126.87460888671875,9.885040283203125,0.0154571533203125,0.106170654296875
1702338801096765200,126.97876513671875,9.888870239257812,0.0111541748046875,0.0977935791015625
1702338801200921600,127.08292163085937,9.894149780273438,0.0197601318359375,0.0985107421875
1702338801305108700,127.18710864257812,9.89031982421875,0.0209503173828125,0.103057861328125
1702338801409234700,127.29123461914062,9.880020141601562,0.01593017578125,0.0985107421875
1702338801513360600,127.39536059570312,9.891983032226562,0.0223846435546875,0.0934906005859375
1702338801617517000,127.49951708984375,9.8931884765625,0.0202484130859375,0.103302001953125
1702338801721673700,127.603673828125,9.883132934570312,0.0183258056640625,0.104736328125
1702338801825799700,127.70779956054687,9.886489868164062,0.0130615234375,0.10162353515625
1702338801929956000,127.8119560546875,9.89630126953125,0.014495849609375,0.1020965576171875
1702338802034082000,127.91608203125,9.893905639648438,0.017120361328125,0.103302001953125
1702338802138238500,128.02023852539062,9.890792846679688,0.0152130126953125,0.1023406982421875
1702338802242395100,128.12439501953125,9.897735595703125,0.0128173828125,0.1020965576171875
1702338802346521000,128.22852099609375,9.896774291992188,0.011383056640625,0.1078338623046875
1702338802450647000,128.33264697265625,9.887435913085938,0.0137786865234375,0.103057861328125
1702338802554834000,128.436833984375,9.887435913085938,0.020721435546875,0.103057861328125
1702338802658960100,128.54096020507814,9.889114379882812,0.017608642578125,0.1066436767578125
1702338802763086000,128.64508618164064,9.891510009765625,0.017364501953125,0.0961151123046875
1702338802867212000,128.7492119140625,9.89630126953125,0.023345947265625,0.114776611328125
1702338802971368400,128.85336840820312,9.8931884765625,0.0214385986328125,0.105682373046875
1702338803075494400,128.95749438476562,9.892471313476562,0.01593017578125,0.0961151123046875
1702338803179650800,129.06165087890625,9.874038696289062,0.023834228515625,0.10736083984375
1702338803283761700,129.16576171875,9.88958740234375,0.029083251953125,0.10162353515625
1702338803387918000,129.26991796875,9.894622802734375,0.0192718505859375,0.104736328125
1702338803492044000,129.3740439453125,9.889114379882812,0.0164031982421875,0.108551025390625
1702338803596200700,129.47820068359374,9.893661499023438,0.0123443603515625,0.096588134765625
1702338803700326700,129.58232666015624,9.898208618164062,0.0111541748046875,0.0985107421875
1702338803804483000,129.68648315429687,9.891983032226562,0.011138916015625,0.102813720703125
1702338803908609000,129.79060913085937,9.896774291992188,0.014251708984375,0.0985107421875
1702338804012765700,129.894765625,9.887924194335938,0.0135345458984375,0.0946807861328125
1702338804116891600,129.9988916015625,9.8934326171875,0.0140228271484375,0.097076416015625
1702338804221048000,130.10304809570312,9.891036987304688,0.0166473388671875,0.1004180908203125
1702338804325174000,130.20717407226562,9.88671875,0.0180816650390625,0.099945068359375
1702338804429300000,130.31130004882812,9.891510009765625,0.0152130126953125,0.10113525390625
1702338804533426000,130.41542602539062,9.884811401367188,0.0130615234375,0.115020751953125
1702338804637582600,130.51958251953124,9.889114379882812,0.0154571533203125,0.1100006103515625
1702338804741739000,130.62373901367187,9.897491455078125,0.0214385986328125,0.104736328125
1702338804845865000,130.72786499023437,9.887924194335938,0.0286102294921875,0.103302001953125
1702338804950021400,130.832021484375,9.890304565429688,0.0274200439453125,0.10736083984375
1702338805054178000,130.93617797851562,9.890792846679688,0.01641845703125,0.0985107421875
1702338805158304000,131.04030395507812,9.907546997070312,0.017608642578125,0.100189208984375
1702338805262460400,131.14446044921874,9.887680053710938,0.0123443603515625,0.1083221435546875
1702338805366586400,131.24858642578124,9.897247314453125,0.011383056640625,0.10760498046875
1702338805470712300,131.35271240234374,9.905380249023438,0.014739990234375,0.099945068359375
1702338805574838300,131.45683837890624,9.887435913085938,0.0257415771484375,0.0985107421875
1702338805678995000,131.56099487304687,9.876434326171875,0.0257415771484375,0.102569580078125
1702338805783151400,131.6651513671875,9.897964477539062,0.0154571533203125,0.0985107421875
1702338805887307800,131.76930786132812,9.88385009765625,0.019287109375,0.0963592529296875
1702338805991433700,131.87343383789062,9.899169921875,0.0075531005859375,0.1018524169921875
1702338806095620900,131.97762084960937,9.894378662109375,0.014739990234375,0.1104736328125
1702338806199716400,132.08171630859374,9.90228271484375,0.0121002197265625,0.1009063720703125
1702338806303872800,132.18587280273437,9.891738891601562,0.0166473388671875,0.104736328125
1702338806407998700,132.28999877929687,9.892471313476562,0.0157012939453125,0.0946807861328125
1702338806512124700,132.39412475585937,9.897018432617188,0.017852783203125,0.1049652099609375
1702338806616250600,132.49825073242187,9.901321411132812,0.0254974365234375,0.1104736328125
1702338806720407300,132.6024072265625,9.906097412109375,0.0168914794921875,0.1023406982421875
1702338806824533200,132.706533203125,9.897247314453125,0.014739990234375,0.1020965576171875
1702338806928659200,132.8106591796875,9.892227172851562,0.0195159912109375,0.1032867431640625
1702338807032785200,132.91478515625,9.89581298828125,0.0168914794921875,0.0941925048828125
1702338807136911000,133.0189111328125,9.897247314453125,0.0089874267578125,0.0987396240234375
1702338807241067500,133.12306762695312,9.904678344726562,0.017364501953125,0.1054534912109375
1702338807345224200,133.22722412109374,9.897491455078125,0.0209503173828125,0.1071319580078125
1702338807449350100,133.33135009765624,9.901077270507812,0.0200042724609375,0.104248046875
1702338807553476000,133.43547607421874,9.88671875,0.0200042724609375,0.104736328125
1702338807657602000,133.53960205078124,9.904434204101562,0.017852783203125,0.10113525390625
1702338807761758500,133.64375854492187,9.899887084960938,0.011383056640625,0.1083221435546875
1702338807865884400,133.74788452148437,9.879776000976562,0.018798828125,0.103302001953125
1702338807970010400,133.85201025390626,9.8924560546875,0.0152130126953125,0.1111907958984375
1702338808074167000,133.9561669921875,9.888870239257812,0.0202484130859375,0.10760498046875
1702338808178323500,134.06032348632812,9.888397216796875,0.0168914794921875,0.0934906005859375
1702338808282449400,134.16444946289062,9.88433837890625,0.0135345458984375,0.1020965576171875
1702338808386605800,134.26860571289063,9.894134521484375,0.0168914794921875,0.0932464599609375
1702338808490731800,134.37273168945313,9.88671875,0.014251708984375,0.10736083984375
1702338808594888400,134.47688842773437,9.897491455078125,0.0166473388671875,0.094207763671875
1702338808699014400,134.58101440429687,9.899887084960938,0.018798828125,0.0989837646484375
1702338808803170800,134.6851708984375,9.887924194335938,0.0137786865234375,0.1020965576171875
1702338808907296800,134.789296875,9.891510009765625,0.01593017578125,0.097076416015625
1702338809011422700,134.89342260742188,9.8927001953125,0.014495849609375,0.1063995361328125
1702338809115548700,134.99754858398438,9.891265869140625,0.017608642578125,0.106414794921875
1702338809219675000,135.1016748046875,9.887435913085938,0.014007568359375,0.1068878173828125
1702338809323800800,135.20580078125,9.899398803710938,0.017364501953125,0.102813720703125
1702338809427957200,135.30995727539062,9.891983032226562,0.017364501953125,0.1006622314453125
1702338809532052700,135.414052734375,9.898208618164062,0.00970458984375,0.1049652099609375
1702338809636239600,135.51823950195313,9.889358520507812,0.0211944580078125,0.0985107421875
1702338809740335000,135.62233520507812,9.886962890625,0.01641845703125,0.1102294921875
1702338809844491800,135.72649169921874,9.884811401367188,0.014007568359375,0.1018524169921875
1702338809948617700,135.83061767578124,9.882888793945312,0.019287109375,0.1004180908203125
1702338810052743700,135.93474365234374,9.891265869140625,0.01593017578125,0.104248046875
1702338810156869600,136.03886962890624,9.8929443359375,0.0171356201171875,0.1066436767578125
1702338810260995600,136.14299560546874,9.89581298828125,0.0185699462890625,0.10760498046875
1702338810365121500,136.24712158203124,9.884567260742188,0.0197601318359375,0.103302001953125
