time,seconds_elapsed,z,y,x
1702338674349034200,0.2310341796875,0.2132180780172348,-4.373208522796631,5.122364044189453
1702338674449803300,0.33180322265625,-0.050310730934143066,-1.651023507118225,1.7099500894546509
1702338674550480600,0.432480712890625,2.0625250339508057,-0.3955273926258087,-0.8302538394927979
1702338674651219200,0.53321923828125,0.8693814873695374,0.8815089464187622,-2.2069945335388184
1702338674751927300,0.63392724609375,-0.09782058000564575,1.7627246379852295,-1.994391679763794
1702338674852635400,0.734635498046875,-1.0555977821350098,1.1931341886520386,-1.174170970916748
1702338674953312800,0.835312744140625,1.0476571321487427,-0.5648461580276489,-0.5917806029319763
1702338675054051300,0.93605126953125,-0.4880824387073517,0.4502813518047333,-1.5934685468673706
1702338675154728700,1.036728759765625,-0.005087149329483509,1.5696618556976318,-3.071148633956909
1702338675255436800,1.137436767578125,-3.1780219078063965,1.7485525608062744,1.3262145519256592
1702338675356175400,1.23817529296875,-0.8304372429847717,0.6629982590675354,1.5496972799301147
1702338675456883200,1.33888330078125,0.43227800726890564,-0.5247772336006165,-0.47819802165031433
1702338675557591300,1.43959130859375,0.7643685340881348,-2.6547763347625732,-0.8630552291870117
1702338675658299400,1.54029931640625,1.0301316976547241,-3.762899875640869,-0.7326709628105164
1702338675759007200,1.64100732421875,1.5288125276565552,-2.567216634750366,1.9353101253509521
1702338675859684900,1.741684814453125,-0.9257128238677979,0.5351626873016357,0.9756643176078796
1702338675960423400,1.84242333984375,-0.11045288294553757,-0.771706223487854,-0.9914729595184326
1702338676061131300,1.94313134765625,-0.8672015070915222,-0.9752160906791687,-2.9689600467681885
1702338676866764800,2.748764892578125,0.11171634495258331,0.15873152017593384,0.9056993126869202
1702338676967473000,2.849472900390625,0.09709276258945465,-0.0013458343455567956,0.6788170337677002
1702338677068211500,2.95021142578125,0.07784932851791382,-0.016904564574360847,0.13424786925315857
1702338677168888800,3.050888916015625,0.07846441119909286,-0.003336890134960413,0.008866962045431137
1702338677269627400,3.15162744140625,0.07447951287031174,0.0038258032873272896,0.0003044571785721928
1702338677370305000,3.252304931640625,0.09481058269739151,0.0011893708724528551,0.003847963409498334
1702338677470982400,3.352982421875,0.09482401609420776,0.0005265800282359123,0.003212489653378725
1702338677571751400,3.45375146484375,0.1022137925028801,-0.012162351049482822,-0.00015545953647233546
1702338677672429000,3.554428955078125,0.09020533412694931,-0.009945307858288288,0.002001807326450944
1702338677773137000,3.655136962890625,0.09137066453695297,0.005808375310152769,-0.00026488266303204
1702338677873875500,3.75587548828125,0.07129894942045212,0.01772115007042885,0.00419456884264946
1702338677974553000,3.856552978515625,0.07303088158369064,0.006276547443121672,-0.0024541395250707865
1702338678075261000,3.957260986328125,0.07639485597610474,0.0008236078429035842,-0.004074613098055124
1702338678175969000,4.057968994140625,0.08305388689041138,-0.014144567772746086,-0.0006873697275295854
1702338678276707600,4.15870751953125,0.08323496580123901,-0.00298137660138309,0.006272549740970135
1702338678377385000,4.259385009765625,0.09065920114517212,-0.0001165284775197506,0.0031221508979797363
1702338678478123500,4.36012353515625,0.08849968761205673,-0.00008944878209149465,-0.0014467419823631644
1702338678578801200,4.46080126953125,0.06959505379199982,0.006936901248991489,-0.00042330846190452576
1702338678679509000,4.561509033203125,0.06434201449155807,0.014264760538935661,-0.00119404389988631
1702338678780217000,4.662217041015625,0.06725037097930908,0.00010179299715673551,-0.0026692801620811224
1702338678881352200,4.763352294921875,0.08279336988925934,-0.009008493274450302,0.00036196617293171585
1702338678981694200,4.863694091796875,0.09066446125507355,-0.013166239485144615,0.009684646502137184
1702338679082432800,4.964432861328125,0.08275014162063599,0.007573023438453674,0.004482378717511892
1702338679183110100,5.065110107421875,0.08205912262201309,0.0041858297772705555,-0.005890686996281147
1702338679283818200,5.165818359375,0.09233739227056503,-0.003378070890903473,-0.002850003307685256
1702338679384526000,5.266526123046875,0.0865720734000206,0.0020389265846461058,0.0031401675660163164
1702338679485356300,5.367356201171875,0.08727069199085236,-0.006803036201745272,0.0017713515553623438
1702338679585942300,5.4679423828125,0.06836020946502686,0.003262190381065011,0.001315989182330668
1702338679686650000,5.568650146484375,0.06622231006622314,0.01072973757982254,-0.0013027003733441234
1702338679787358200,5.669358154296875,0.07412027567625046,0.010340651497244835,0.005429775454103947
1702338679888066300,5.77006640625,0.06413523107767105,0.0024111696984618902,-0.004684020299464464
1702338679988774100,5.870774169921875,0.08566959947347641,-0.007699321955442429,0.009047630243003368
1702338680089482200,5.971482177734375,0.0739608034491539,-0.004665570333600044,0.0026618691626936197
1702338680190220800,6.072220703125,0.08039670437574387,0.0035163306165486574,0.0033214837312698364
1702338680290898200,6.172898193359375,0.09527087211608887,-0.010797915980219841,-0.0009819424012675881
1702338680391636700,6.27363671875,0.08086633682250977,-0.003098279470577836,-0.0022950656712055206
1702338681197209300,7.079209228515625,0.07844864577054977,-0.0010745947947725654,0.00415774155408144
1702338681297917200,7.179917236328125,0.08464562892913818,-0.006023013964295387,-0.002807352924719453
1702338682103581400,7.98558154296875,0.07343509048223495,0.0010862726485356688,-0.001454134820960462
1702338682204289300,8.086289306640625,0.08181086927652359,0.006136476062238216,0.007666017860174179
1702338682304997400,8.186997314453125,0.07441233843564987,-0.0012190152192488313,0.005141052883118391
1702338682405705500,8.28770556640625,0.07924071699380875,-0.00392197398468852,0.005318526644259691
1702338682506443800,8.38844384765625,0.0744771733880043,-0.0007595548522658646,0.003693261416628957
1702338682607151900,8.48915185546875,0.07877691835165024,0.0023014089092612267,-0.0002700485347304493
1702338683513498400,9.395498291015626,0.08327585458755493,-0.00038996312650851905,0.0011614880058914423
1702338683614206500,9.49620654296875,0.06676262617111206,0.00013982504606246948,0.0035787089727818966
1702338683714945000,9.596945068359375,0.07156822830438614,0.005312662571668625,0.00009151604172075167
1702338683815744500,9.69774462890625,0.08353579044342041,0.004742132034152746,-0.005380161106586456
1702338683916330500,9.79833056640625,0.07636681944131851,0.0064161717891693115,0.002112991875037551
1702338684017038300,9.899038330078126,0.07158633321523666,0.0002712532877922058,0.0017715523717924953
1702338684117746400,9.999746337890626,0.08451186865568161,-0.009416664950549603,0.0018377592787146568
1702338684218454500,10.10045458984375,0.08952190726995468,-0.0026328591629862785,0.005251881666481495
1702338684319162400,10.201162353515626,0.0804317519068718,0.005297119729220867,0.004754891153424978
1702338684419870500,10.301870361328126,0.07471724599599838,-0.007774633355438709,0.0022340246941894293
1702338684520578600,10.40257861328125,0.08763869106769562,0.0029637571424245834,-0.004831046797335148
1702338684621286400,10.503286376953126,0.07779967784881592,0.009188102558255196,-0.004471088293939829
1702338684721994500,10.603994384765626,0.08136051148176193,0.004464142955839634,-0.005694749299436808
1702338685124857000,11.006857177734375,0.08512227982282639,-0.0008156172116287053,0.0025118219200521708
1702338685225534500,11.107534423828126,0.07481654733419418,0.012702575884759426,0.009937243536114693
1702338685326242600,11.20824267578125,0.08303695172071457,0.012068311683833599,-0.00038146134465932846
1702338685427011600,11.309011474609376,0.07351920753717422,0.003127198200672865,0.0010569842997938395
1702338685527719700,11.4097197265625,0.08789687603712082,-0.013464882969856262,-0.0024699110072106123
1702338685629404200,11.511404052734376,0.07587790489196777,-0.0017504006391391158,0.003659181296825409
1702338685729135600,11.611135498046876,0.07944983243942261,0.008613725192844868,-0.004922809079289436
1702338685829843700,11.71184375,0.09091972559690475,-0.012936628423631191,0.005070373881608248
1702338685930582300,11.812582275390625,0.08972986042499542,-0.010199813172221184,0.0009291612077504396
1702338686031259600,11.913259765625,0.07772958278656006,0.005944293923676014,0.00013422108895611018
1702338686131967700,12.0139677734375,0.07772257179021835,0.008707039058208466,-0.0007458461332134902
1702338686232919800,12.114919921875,0.08731041103601456,0.0073432838544249535,0.002154985209926963
1702338686333383700,12.2153837890625,0.07775937765836716,-0.00047936628106981516,-0.0018133538542315364
1702338686434091800,12.316091796875,0.06818205118179321,0.0022707697935402393,0.0007292259833775461
1702338686534799600,12.416799560546876,0.07321896404027939,0.0021341892424970865,0.003675025887787342
1702338686635507700,12.5175078125,0.08521398156881332,-0.0015932617243379354,0.005998969078063965
1702338686736215800,12.6182158203125,0.08115722984075546,-0.00032274305704049766,0.000028987229597987607
1702338686836923600,12.718923583984376,0.06273099035024643,0.0028800354339182377,-0.004687726031988859
1702338686937631700,12.8196318359375,0.07801463454961777,0.0047892313450574875,-0.0013009753311052918
1702338687038339800,12.92033984375,0.06293952465057373,0.0037877073045819998,0.0023286347277462482
1702338687139047700,13.021047607421876,0.07708003371953964,-0.0027072210796177387,0.0016728168120607734
1702338687239755800,13.121755859375,0.07061727344989777,0.0027589891105890274,-0.000038871727156220004
1702338687340494300,13.222494384765625,0.06963944435119629,-0.0021886087488383055,-0.00614272803068161
1702338687441202200,13.3232021484375,0.071774423122406,-0.0008903442067094147,0.00264246528968215
1702338687541879800,13.4238798828125,0.0868501216173172,-0.002417873591184616,0.010221430100500584
1702338687642587600,13.524587646484376,0.06987835466861725,0.005751281511038542,0.0029620639979839325
1702338687743295700,13.625295654296876,0.09598817676305771,-0.012732941657304764,-0.002783777890726924
1702338687844003800,13.72600390625,0.08471222221851349,-0.0015814377693459392,0.0059594037011265755
1702338687944742400,13.826742431640625,0.0734713077545166,0.0023670135997235775,-0.002167352242395282
1702338688045389300,13.927389404296875,0.08900787681341171,0.007400660775601864,0.0033540669828653336
1702338688146128000,14.0281279296875,0.07229604572057724,0.0033584616612643003,-0.0001770265371305868
1702338688246835700,14.128835693359376,0.06559320539236069,0.005254245828837156,-0.007584705948829651
1702338688347543800,14.229543701171876,0.07419153302907944,-0.0027442171704024076,0.0008010003948584199
1702338688448221400,14.330221435546875,0.07799828052520752,-0.0004934400203637779,0.004362276755273342
1702338688548990500,14.430990478515625,0.07752280682325363,-0.005342868622392416,0.004463312216103077
1702338688649881600,14.531881591796875,0.06700678914785385,0.005651651881635189,-0.0030091225635260344
1702338688750376000,14.6323759765625,0.06700854748487473,-0.0004541986854746938,0.004463695455342531
1702338688851083800,14.733083740234376,0.09333274513483047,-0.004667537286877632,-0.0020425317343324423
1702338688951791900,14.8337919921875,0.10312853008508682,-0.010353264398872852,-0.003917483612895012
1702338689253927000,15.135927001953124,0.03388570621609688,0.007418371271342039,0.00775783509016037
1702338689354604500,15.2366044921875,0.03394586965441704,0.00522339204326272,0.004168995190411806
1702338689455312400,15.3373125,0.044659316539764404,0.0026439072098582983,0.006635812111198902
1702338689556051000,15.438051025390624,0.047450851649045944,0.00046531076077371836,-0.0030457947868853807
1702338689656759000,15.538759033203124,0.04099217802286148,0.0030409712344408035,0.0006438432610593736
1702338689757497600,15.63949755859375,0.03596402332186699,0.003686626208946109,-0.002612656680867076
1702338689858175000,15.740175048828124,0.035468101501464844,-0.0060234977863729,-0.006524828262627125
1702338689958913500,15.84091357421875,0.033517707139253616,-0.001991849858313799,-0.006992621347308159
1702338690059591200,15.941591064453124,0.04386899620294571,-0.0007431674166582525,0.002662654034793377
1702338690160299000,16.042299072265624,0.04360088333487511,0.00018535033450461924,0.0006862562149763107
1702338690261007000,16.143007080078124,0.030937040224671364,0.0022786189801990986,0.012314936146140099
1702338690361715200,16.243715087890624,0.04105701670050621,-0.0005610936204902828,0.0051071555353701115
1702338690462392600,16.344392578125,0.05171964317560196,0.000782522838562727,-0.004605309572070837
1702338690563131100,16.445131103515624,0.04885976389050484,0.004745536018162966,-0.0030238626059144735
1702338690663869700,16.54586962890625,0.042256224900484085,-0.0008863648399710655,0.0001441055937903002
1702338690764547000,16.646547119140624,0.04175971820950508,-0.002928271424025297,-0.008267320692539215
1702338690865255200,16.747255126953124,0.04568212106823921,0.0010889651020988822,0.007269935216754675
1702338690965963000,16.847962890625,0.04197292402386665,0.0005923124263063073,0.011037836782634258
1702338691066701600,16.94870166015625,0.03483724594116211,-0.0005769791314378381,-0.005936166737228632
1702338691570180600,17.4521806640625,0.04682408645749092,0.004228662699460983,-0.009614386595785618
1702338691670919200,17.552919189453124,0.03603295236825943,-0.0049138143658638,-0.005202240310609341
1702338691771627300,17.653627197265624,0.040531303733587265,0.00037201037048362195,0.007011952344328165
1702338691872335000,17.754335205078124,0.035751987248659134,0.0014718685997650027,0.0008831886807456613
1702338691973073700,17.85507373046875,0.03505746275186539,0.007697638124227524,0.0012332715559750795
1702338692073751300,17.955751220703124,0.051602233201265335,-0.00005100602356833406,-0.002543684095144272
1702338692174459100,18.056459228515624,0.03937356546521187,-0.004490140825510025,-0.002056651283055544
1702338692275197700,18.15719775390625,0.039240386337041855,0.0024231078568845987,0.006502914242446423
1702338692375905800,18.25790576171875,0.04427320882678032,-0.0008681383333168924,0.005353556014597416
1702338692476614000,18.35861376953125,0.05459938198328018,0.0035729543305933475,-0.0011744573712348938
1702338692577321700,18.45932177734375,0.036663807928562164,-0.00015444187738467008,0.00003344118522363715
1702338692678029800,18.56002978515625,0.04837435483932495,-0.004090535454452038,-0.01106667798012495
1702338692778737700,18.660737548828124,0.04292679950594902,-0.002380110789090395,0.0011871804017573595
1702338692879445800,18.76144580078125,0.03788287565112114,0.0033935182727873325,-0.0002130597858922556
1702338692980123400,18.862123291015624,0.05460872873663902,0.0015947631327435374,0.0077485255897045135
1702338693080861700,18.96286181640625,0.04294082149863243,-0.0006849008495919406,0.0006575154257006943
1702338693181539300,19.063539306640624,0.052407156676054,0.002608613343909383,-0.003385554999113083
1702338693282247400,19.164247314453124,0.04929376766085625,-0.00009619817137718201,0.004951887764036655
1702338693382985700,19.26498583984375,0.04270249605178833,-0.00037929369136691093,-0.0005498172831721604
1702338693483652400,19.36565234375,0.04773532226681709,-0.0017440117662772536,-0.003472142620012164
1702338693584360200,19.466360107421874,0.04532405361533165,0.0011314739240333438,-0.0019684392027556896
1702338693685098800,19.5670986328125,0.051876187324523926,0.00005241614053375088,0.004523240029811859
1702338693785806800,19.667806884765625,0.04362424835562706,0.00007274644303834066,-0.004355395212769508
1702338695296335400,21.17833544921875,0.05111156776547432,0.0008561272406950593,-0.004368811845779419
1702338695397043500,21.27904345703125,0.04105643182992935,0.0012070451630279422,0.0028541376814246178
1702338695497720800,21.379720947265625,0.0365072600543499,-0.0012085282942280173,0.006324382033199072
1702338695598429000,21.480428955078125,0.04621250554919243,-0.0023519997484982014,-0.007053188048303127
1702338695699167500,21.58116748046875,0.05349070951342583,-0.0033554816618561745,0.0031544878147542477
1702338695799875300,21.681875244140624,0.03779350593686104,-0.00009611603309167549,-0.014209802262485027
1702338695900583400,21.78258349609375,0.04943804815411568,-0.0012937376741319895,0.005124578718096018
1702338696001291500,21.88329150390625,0.05783076584339142,0.004891795571893454,0.011892932467162609
1702338696102029800,21.98402978515625,0.05966433510184288,-0.0026565936859697104,0.002473223954439163
1702338696202707500,22.08470751953125,0.058505430817604065,0.002962670987471938,-0.003191725816577673
1702338696303415300,22.185415283203124,0.05049706622958183,-0.0011133387451991439,0.005363294389098883
1702338696404123400,22.286123291015624,0.05014308914542198,0.002952494425699115,0.00753647880628705
1702338696504862000,22.386862060546875,0.054244816303253174,-0.00039313474553637207,-0.0047488948330283165
1702338696605539300,22.487539306640624,0.07601751387119293,0.003185993991792202,-0.002017834223806858
1702338696706247400,22.588247314453124,0.03421398624777794,0.05076389014720917,-0.08199990540742874
1702338696806955500,22.68895556640625,0.01715226285159588,0.04042191430926323,-0.055038418620824814
1702338696907694000,22.789694091796875,0.04025851562619209,-0.02722744084894657,0.14531241357326508
1702338697008371500,22.890371337890624,0.024216676130890846,-0.0222675409168005,-0.07353948801755905
1702338700331735800,26.21373583984375,0.03598914295434952,-0.0007838234305381775,0.0007862147176638246
1702338700432443600,26.314443603515624,0.03527066856622696,0.005156240426003933,-0.004036754835397005
1702338700533151700,26.41515185546875,0.03920825943350792,0.004009319003671408,0.0004776230198331177
1702338700633859800,26.51585986328125,0.0311975609511137,-0.0003325408324599266,0.008508892729878426
1702338700734567700,26.616567626953124,0.03998047113418579,-0.005217901896685362,0.007440490648150444
1702338700835275800,26.71727587890625,0.052205633372068405,0.0015829893527552485,-0.005404293071478605
1702338700935983900,26.81798388671875,0.03783205896615982,0.0021089212968945503,-0.006095340941101313
1702338701036691700,26.918691650390624,0.050361551344394684,0.004891430493444204,-0.004101227503269911
1702338701137399800,27.01939990234375,0.050680484622716904,-0.003722467692568898,0.002832662081345916
1702338701238108000,27.12010791015625,0.05451176315546036,0.004067357163876295,0.00579489953815937
1702338701338815700,27.220815673828124,0.044857919216156006,-0.0006965879583731294,0.0032312364783138037
1702338701439523800,27.32152392578125,0.05039309337735176,-0.0009122580522671342,0.007525051943957806
1702338701540232000,27.42223193359375,0.048158228397369385,0.0026062950491905212,-0.006551971659064293
1702338701640970200,27.52297021484375,0.04847774654626846,-0.0013329836074262857,-0.005840817000716925
1702338701741648000,27.62364794921875,0.05430030822753906,-0.0004564667178783566,-0.0012897126143798232
1702338701842386400,27.724386474609375,0.034409668296575546,0.0006464626640081406,0.006948821246623993
1702338701943063800,27.825063720703124,0.04879492521286011,0.001533758477307856,0.004643706604838371
1702338702043863300,27.92586328125,0.04547300562262535,0.002284232061356306,-0.0053614783100783825
1702338702144541000,28.026541015625,0.046902358531951904,0.0011465380666777492,-0.001241549733094871
1702338702245249000,28.1272490234375,0.03886888176202774,-0.006901908665895462,0.0018757457146421075
1702338702345956900,28.227956787109374,0.03321746736764908,0.004284560680389404,0.005636765621602535
1702338702446665000,28.3286650390625,0.035651516169309616,0.0010614747880026698,0.001976653467863798
1702338702547403500,28.429403564453125,0.03698974847793579,0.004148267675191164,-0.009864592924714088
1702338702648111400,28.530111328125,0.03504461050033569,-0.00266918889246881,-0.00209538615308702
1702338702748789000,28.6307890625,0.03238333389163017,0.0014054699568077922,0.009045649319887161
1702338702849497000,28.7314970703125,0.03693601116538048,0.0002999393327627331,0.002888728864490986
1702338702950235400,28.8322353515625,0.039853133261203766,0.0019686673767864704,-0.00585754681378603
1702338703050943500,28.932943603515625,0.04761148616671562,-0.0028895046561956406,-0.0024368620943278074
1702338703151651600,29.033651611328125,0.03609428554773331,0.006129986606538296,0.002630737144500017
1702338703252298500,29.134298583984375,0.04267270490527153,0.0013290680944919586,-0.0074950517155230045
1702338703353067500,29.235067626953125,0.04589123651385307,-0.006953202188014984,0.010203951969742775
1702338703453806000,29.33580615234375,0.03646228462457657,-0.0007805195054970682,0.013597474433481693
1702338703554514200,29.43651416015625,0.04332634434103966,0.001807786407880485,0.000727026374079287
1702338703655252500,29.53725244140625,0.04696077108383179,0.0004905924433842301,-0.006571275182068348
1702338703755991000,29.637990966796874,0.04226790741086006,-0.0006188901024870574,0.0007843162748031318
1702338703856729600,29.7387294921875,0.03960896655917168,-0.001671666861511767,0.0009542420739308
1702338704259561700,30.141561767578125,0.05186508968472481,0.0029887331183999777,0.003370568621903658
1702338704360300300,30.24230029296875,0.03168530389666557,0.003080157795920968,0.005562289617955685
1702338704460916700,30.342916748046875,0.03436468914151192,-0.0012309624580666423,0.0006272778264246881
1702338704561716200,30.44371630859375,0.04585151746869087,-0.006590752396732569,-0.0005389470607042313
1702338704662485200,30.5444853515625,0.030986107885837555,-0.002129548229277134,-0.00041013825102709234
1702338704763223800,30.645223876953125,0.044967737048864365,0.004710160195827484,0.002086441731080413
1702338704863962400,30.74596240234375,0.04401269182562828,-0.002308920491486788,0.0007467862451449037
1702338704964728600,30.846728515625,0.03791792318224907,-0.0019050068221986294,0.004178149625658989
1702338705065436400,30.9474365234375,0.04917694255709648,0.0010446537053212523,-0.0009531376999802887
1702338705166175000,31.048175048828124,0.038168516010046005,0.0002512743812985718,0.006332906428724527
1702338705266516700,31.148516845703124,0.04094661399722099,-0.0009745587012730539,-0.0005105348536744714
1702338705367194400,31.2491943359375,0.048248182982206345,0.006609626580029726,-0.006287673022598028
1702338705467902200,31.349902099609373,0.039967622607946396,0.0025091294664889574,-0.003151603741571307
1702338705568610300,31.4506103515625,0.04425393417477608,-0.00044090524897910655,-0.0007920011994428933
1702338705669348900,31.551348876953124,0.04985920339822769,0.0034052967093884945,0.002715344075113535
1702338705770057000,31.652056884765624,0.04940007999539375,-0.0009876376716420054,0.00024462080909870565
1702338705870734300,31.752734375,0.034919023513793945,0.0005685731885023415,0.0023114485666155815
1702338705971411700,31.85341162109375,0.05216299369931221,0.0007998047512955964,0.0027751438319683075
1702338706072119800,31.954119873046874,0.03936363384127617,-0.008045726455748081,0.0015182426432147622
1702338706172828000,32.05482788085938,0.04844912514090538,0.0019942044746130705,-0.00036565345362760127
1702338706273566500,32.15556640625,0.03516903147101402,0.0005557771655730903,0.0016664554132148623
1702338706374274300,32.2562744140625,0.045571137219667435,0.0036522175651043653,-0.0017932106275111437
1702338706475012900,32.35701293945313,0.04342097043991089,0.000480388494906947,-0.004591472912579775
1702338706575690500,32.4576904296875,0.03824737295508385,0.00047005678061395884,-0.007702963892370462
1702338706676398300,32.5583984375,0.03676719591021538,-0.0021565549541264772,0.0073271519504487514
1702338706777137000,32.65913696289063,0.049808382987976074,-0.00033252258435823023,0.010359730571508408
1702338707179907800,33.06190795898438,0.040707122534513474,0.001135412254370749,0.008106393739581108
1702338707280646400,33.162646484375,0.043726470321416855,-0.0010658191749826074,0.009610708802938461
1702338707381385000,33.26338500976563,0.045447301119565964,-0.000578329898416996,-0.0001787971705198288
1702338707482062300,33.36406225585937,0.042361367493867874,-0.0019067773828282952,-0.0067698233760893345
1702338707582770400,33.4647705078125,0.04901689291000366,0.004294518381357193,0.0030501848086714745
1702338707683417300,33.56541723632812,0.05164429172873497,0.00020291061082389206,-0.003925378434360027
1702338707784217000,33.66621704101563,0.03691906854510307,0.00025937912869267166,0.0030344135593622923
1702338707884894500,33.76689453125,0.05139895901083946,0.0011616339907050133,-0.007376893889158964
1702338707985602600,33.8676025390625,0.04048048332333565,0.006476884242147207,0.011441294103860855
1702338708086341000,33.96834106445313,0.03911362960934639,0.0002988440974149853,0.0024239749182015657
1702338708187018500,34.0690185546875,0.04941059276461601,-0.0026196844410151243,-0.004254861734807491
1702338708287726600,34.1697265625,0.0415097139775753,-0.000598500482738018,-0.0031510652042925358
1702338708388465200,34.27046508789063,0.041110169142484665,0.00409058528020978,0.005188303533941507
1702338708489173000,34.37117309570313,0.041717659682035446,-0.004660518374294043,0.0020556107629090548
1702338708589881000,34.47188110351563,0.052748288959264755,0.000552938727196306,-0.00007976051711011678
1702338708690650000,34.57265014648438,0.046284355223178864,0.004223647527396679,-0.00015582461492158473
1702338708791388700,34.673388671875,0.04411900043487549,-0.002846133429557085,-0.0019052623538300395
1702338708892005000,34.77400512695313,0.03310064226388931,-0.005738421808928251,-0.0025046938098967075
1702338709294898200,35.17689819335938,0.03396865352988243,0.004655352793633938,-0.0032044032122939825
1702338709395636700,35.27763671875,0.036199428141117096,0.0019365769112482667,0.005309107713401318
1702338709496528000,35.37852783203125,0.03813755512237549,-0.00852756667882204,0.00043569374247454107
1702338709597297000,35.479296875,0.0472329743206501,0.0035300804302096367,0.006186528131365776
1702338709698035500,35.58003540039063,0.030875707045197487,-0.0008824311080388725,0.00406628055498004
1702338709798346800,35.6803466796875,0.030887389555573463,0.000029470958907040767,0.002770845079794526
1702338709899054600,35.7810546875,0.030927695333957672,-0.0010585541604086757,0.0006802232819609344
1702338709999793200,35.88179321289063,0.030920101329684258,0.00023686290660407394,0.0004753595276270062
1702338710100470500,35.98247045898437,0.03306851536035538,0.0008397808414883912,-0.007728930097073317
1702338710201178600,36.0831787109375,0.040447186678647995,0.0025035073049366474,-0.001924912678077817
1702338710301917200,36.18391723632813,0.040901053696870804,-0.0011612324742600322,0.005823603831231594
1702338710402594600,36.28459448242187,0.04569964483380318,0.0033966717310249805,0.008306711912155151
1702338710503302700,36.385302734375,0.030802691355347633,0.00044384412467479706,-0.009313415735960007
1702338710604010800,36.4860107421875,0.034490276128053665,0.002138200681656599,-0.003993876278400421
1702338711006842600,36.88884252929687,0.036209940910339355,0.0032970053143799305,0.0015748754376545548
1702338711107550700,36.98955078125,0.04327493906021118,0.0005193149554543197,0.008603794500231743
1702338711208228000,37.09022802734375,0.03600141033530235,0.0003169702540617436,-0.001991110621020198
1702338711308966700,37.19096655273437,0.0325603261590004,-0.00019034277647733688,-0.004314305726438761
1702338711409705200,37.29170532226563,0.028938163071870804,0.0015137613518163562,-0.0009837495163083076
1702338711510382800,37.3923828125,0.04015395790338516,0.0019087762339040637,0.0034276486840099096
1702338711611090700,37.49309057617187,0.028574252501130104,0.0010135490447282791,-0.00024747755378484726
1702338711711798800,37.593798828125,0.03778357431292534,-0.004556343425065279,-0.003451269119977951
1702338711812507000,37.6945068359375,0.040397536009550095,0.002914375625550747,0.00402480736374855
1702338711913245200,37.7952451171875,0.04840823635458946,0.0028424826450645924,-0.007907726801931858
1702338712013922800,37.8959228515625,0.04885392263531685,0.002446746686473489,0.006435411516577005
1702338712114631000,37.996630859375,0.04602149873971939,-0.0022656312212347984,0.0037575974129140377
1702338712215369200,38.097369140625,0.04291803762316704,0.0015200863126665354,-0.0009004934108816087
1702338712316046800,38.198046875,0.0387503020465374,-0.0010748275090008974,0.0052566188387572765
1702338712416755000,38.2987548828125,0.05503338575363159,-0.0045676883310079575,-0.0027068285271525383
1702338712517493200,38.3994931640625,0.0489070788025856,-0.001231400528922677,0.005096276290714741
1702338712618171000,38.5001708984375,0.0401761531829834,0.0041299681179225445,-0.006207885220646858
1702338712718909400,38.60090942382813,0.04683518409729004,-0.0032890373840928078,-0.0075010755099356174
1702338712819586800,38.7015869140625,0.049792613834142685,0.002398501615971327,0.003818026976659894
1702338712920295000,38.802294921875,0.04224337264895439,0.004567551426589489,0.0070455120876431465
1702338713021002800,38.90300268554687,0.045989956706762314,0.0030737780034542084,0.007223688997328281
1702338713121710800,39.0037109375,0.02920978143811226,0.0031680685933679342,0.0030992606189101934
1702338713222449400,39.10444946289063,0.04515991359949112,-0.0009629309643059969,-0.004814809653908014
1702338713323126800,39.20512670898437,0.039634086191654205,0.00034557413891889155,0.003848136868327856
1702338713423835000,39.3058349609375,0.045391228049993515,0.00044376199366524816,-0.0007630687323398888
1702338713524543000,39.40654296875,0.0409337654709816,-0.000791636120993644,0.0019263456342741847
1702338713625281500,39.50728149414063,0.03736826404929161,0.0014545911690220237,0.0032535153441131115
1702338713725989400,39.6079892578125,0.03438454866409302,-0.0017763165524229407,0.0056031327694654465
1702338713826667000,39.7086669921875,0.04758169874548912,0.001633251435123384,0.0024682041257619858
1702338713927374800,39.80937475585937,0.041015543043613434,0.000606513989623636,-0.0032864909153431654
1702338716445043000,42.32704296875,0.04802212864160538,0.005580123979598284,-0.007676158100366592
1702338716545720600,42.427720458984375,0.0549183152616024,-0.005373270250856876,0.0023406913969665766
1702338716948552700,42.830552734375,0.03998164087533951,0.00026046522543765604,-0.0078032054007053375
1702338717049260500,42.931260498046875,0.03528118133544922,0.0032737315632402897,0.0023163771256804466
1702338717149968600,43.03196875,0.055260609835386276,0.00482055963948369,-0.005264476872980595
1702338717250646000,43.13264599609375,0.04554952308535576,-0.0020865967962890863,0.008917287923395634
1702338717351384600,43.233384521484375,0.04176030308008194,0.00048399364459328353,-0.0014915189240127802
1702338717452092700,43.3340927734375,0.04570315033197403,0.00035435426980257034,0.002039145678281784
1702338717552831200,43.43483129882812,0.04989892244338989,-0.006263678427785635,-0.004096326418220997
1702338717653508600,43.535508544921875,0.04112302139401436,-0.00025779101997613907,0.005206968169659376
1702338717754216700,43.636216796875,0.038732778280973434,-0.002141048200428486,-0.0041880798526108265
1702338717854955300,43.73695532226562,0.04910684749484062,0.005628880113363266,0.004899937193840742
1702338717955632600,43.837632568359375,0.04220715910196304,0.007085360586643219,0.0007697405526414514
1702338718056340700,43.9383408203125,0.04880894348025322,-0.0028116335161030293,0.0030669784173369408
1702338718157079300,44.03907934570312,0.04010021686553955,0.00009307674918090925,0.0020020080264657736
1702338718257756700,44.139756591796875,0.047171056270599365,0.002630855655297637,0.006362386513501406
1702338718358464800,44.24046484375,0.05018806457519531,0.0007616357761435211,-0.005148153752088547
1702338718459233800,44.34123388671875,0.040840890258550644,0.0006752856425009668,-0.0044674742966890335
1702338718559941600,44.441941650390625,0.04740879684686661,-0.002655918477103114,0.00458891736343503
1702338718660649700,44.542649658203125,0.049782682210206985,0.0039715152233839035,-0.000016063451766967773
1702338719063451400,44.94545141601562,0.03210996463894844,-0.0038573550991714,0.0008677458390593529
1702338719164159200,45.0461591796875,0.04635737091302872,0.006663348060101271,-0.002777270507067442
1702338719264928300,45.14692822265625,0.04050443321466446,-0.0007176712388172746,-0.0036909524351358414
1702338719365606000,45.24760595703125,0.044649388641119,-0.0012113851262256503,0.0053124758414924145
1702338719466283300,45.348283203125,0.048018038272857666,-0.0014260876923799515,-0.0030057092662900686
1702338719566991400,45.44899145507812,0.03327003866434097,-0.0001763694017427042,0.0008264463394880295
1702338719667699200,45.54969921875,0.03866034746170044,-0.0015772850019857287,0.0024594422429800034
1702338719768376800,45.650376953125,0.033383943140506744,-0.0012056168634444475,0.0005701430491171777
1702338719869176300,45.75117626953125,0.039141666144132614,0.0017678284784778953,-0.0017912026960402727
1702338719969884400,45.85188452148437,0.037930190563201904,0.006317263003438711,-0.0009444579482078552
1702338720070561800,45.952561767578125,0.04368266090750694,-0.0023207671474665403,0.0017871411982923746
1702338720171270000,46.053269775390625,0.04247994348406792,-0.002226485637947917,0.001849094987846911
1702338720271978000,46.15397802734375,0.047026194632053375,0.004487060476094484,-0.007205745205283165
1702338720372716300,46.25471630859375,0.039584435522556305,0.0025468969251960516,0.006267721764743328
1702338721178289000,47.060288818359375,0.03429926559329033,-0.0004294874088373035,0.006107160355895758
1702338721278997000,47.1609970703125,0.038363028317689896,-0.0035457059275358915,0.00018952134996652603
1702338721379704800,47.261704833984375,0.04831594228744507,0.0006606459501199424,-0.004570115823298693
1702338721480413000,47.362412841796875,0.057154346257448196,0.003725570859387517,0.003470089053735137
1702338721581121000,47.46312109375,0.048900652676820755,0.0035565851721912622,0.008051978424191475
1702338721681859600,47.56385961914062,0.041638221591711044,0.0053491112776100636,-0.010245232842862606
1702338721782476000,47.66447607421875,0.03924272209405899,0.000999721698462963,0.005574182141572237
1702338721883245000,47.7652451171875,0.040222298353910446,0.00017479957023169845,0.007626324892044067
1702338721983953000,47.865952880859375,0.05256721004843712,-0.00741947116330266,0.010174955241382122
1702338722084691500,47.96669140625,0.04568913206458092,0.0006224496173672378,-0.000845612958073616
1702338722185369000,48.067369140625,0.043781962245702744,-0.001752832904458046,-0.0027112369425594807
1702338722286107600,48.16810766601562,0.04135258123278618,-0.0019668329041451216,-0.00864589773118496
1702338722386785000,48.268784912109375,0.05061739683151245,0.0017015576595440507,0.0033630570396780968
1702338722487493000,48.3694931640625,0.04749349504709244,0.0024448574986308813,-0.0021063019521534443
1702338722588231400,48.4702314453125,0.041742779314517975,0.0031295071821659803,0.0015768286539241672
1702338722688909000,48.570908935546875,0.04585268720984459,0.004289270378649235,0.009050148539245129
1702338722789647600,48.67164770507812,0.04097406938672066,-0.0029381331987679005,-0.005637723952531815
1702338722890325000,48.772324951171875,0.0446721687912941,0.00016162023530341685,-0.0029873456805944443
1702338723293218000,49.175218017578125,0.036523617804050446,0.00014545638987328857,0.0037020323798060417
1702338723393926100,49.275926025390625,0.04682642221450806,-0.0008483875426463783,-0.00021370779722929
1702338723494603500,49.376603515625,0.0402456633746624,-0.004523066338151693,-0.0018284133402630687
1702338723595281200,49.47728125,0.04775751754641533,0.00008801128569757566,-0.0037343145813792944
1702338723696019700,49.57801977539062,0.038507308810949326,0.0009826542809605598,0.008670512586832047
1702338723796758300,49.67875830078125,0.055041562765836716,0.0014014814514666796,0.0006512178224511445
1702338723897496600,49.77949658203125,0.05495452880859375,0.0026247589848935604,0.001035599852912128
1702338723998174200,49.88017431640625,0.05582312494516373,0.0014227107167243958,0.0075319427996873856
1702338724098882300,49.98088232421875,0.05045384168624878,-0.0003005417238455266,-0.005082330200821161
1702338724199620600,50.08162060546875,0.045655250549316406,0.0005094578373245895,0.001139218220487237
1702338724300298200,50.18229833984375,0.04457753896713257,0.0006843760493211448,0.004625690169632435
1702338724401036800,50.28303686523437,0.048521555960178375,0.00012758579396177083,-0.0014925228897482157
1702338724501714200,50.383714111328125,0.0486588254570961,0.00004265029201633297,0.0027511033695191145
1702338724602422300,50.48442236328125,0.03574439510703087,0.0010401906911283731,0.0020472321193665266
1702338724703130000,50.585130126953125,0.035024166107177734,0.0018569715321063995,-0.001390008837915957
1702338724803868700,50.68586865234375,0.04113703966140747,0.0015869413036853075,-0.0021843831054866314
1702338724904576800,50.78657666015625,0.03190260007977486,0.0014591090148314834,-0.011795146390795708
1702338725005254100,50.887254150390625,0.04740821197628975,0.0002704957441892475,0.007585262414067984
1702338728328575000,54.21057495117188,0.047565340995788574,-0.005275009665638208,0.0031010766979306936
1702338728429283000,54.31128295898438,0.04004998132586479,0.004773702006787062,-0.00041641760617494583
1702338728529991000,54.41199096679688,0.042091500014066696,0.00014438852667808533,0.0020558845717459917
1702338728630699000,54.51269897460938,0.040052901953458786,0.0016236864030361176,0.0029351122211664915
1702338728731407000,54.61340698242188,0.03841559961438179,-0.005049774423241615,0.0041290647350251675
1702338728832145700,54.714145751953126,0.04260260984301567,0.0022130326833575964,0.00313961086794734
1702338728932823000,54.81482299804688,0.04370777681469917,-0.0010766437044367194,0.002441361779347062
1702338729033531100,54.91553125,0.04729956388473511,0.001999123953282833,-0.0037288384046405554
1702338729134239000,55.01623901367188,0.034002531319856644,0.0010451283305883408,-0.0013704224256798625
1702338729234947000,55.11694702148438,0.04164639860391617,0.003546308260411024,0.002174060558900237
1702338729335685600,55.217685546875,0.05410579591989517,-0.006252981722354889,0.008557548746466637
1702338729436363000,55.31836303710938,0.04311488941311836,-0.0022268143948167562,-0.0006128663080744445
1702338729537071000,55.41907104492188,0.04850344732403755,0.003009369131177664,0.0016044741496443748
1702338729637809700,55.5198095703125,0.04457169771194458,0.0028636024799197912,-0.0023899313528090715
1702338729738487000,55.62048706054688,0.04155001789331436,-0.0015536826103925705,-0.006160014308989048
1702338729839195100,55.72119506835938,0.04882997274398804,0.0047235949896276,-0.004071154166013002
1702338729939933700,55.82193359375,0.0438847653567791,-0.0014564074808731675,0.004566757474094629
1702338733061851400,58.94385131835938,0.032476793974637985,-0.002666542073711753,-0.005993155296891928
1702338733162559500,59.0445595703125,0.04213005304336548,-0.00017783883959054947,-0.001274233334697783
1702338733263267300,59.14526733398438,0.04151497036218643,0.0018963543698191643,0.006005421746522188
1702338733363945000,59.245945068359376,0.038408588618040085,-0.001469230861403048,0.0021171539556235075
1702338733464714000,59.3467138671875,0.044524967670440674,-0.0032432200387120247,0.010271263308823109
1702338733565391400,59.44739135742188,0.049488868564367294,0.00016099047206807882,0.008519169874489307
1702338733666099500,59.54809936523438,0.04042849689722061,0.0028597142081707716,-0.005589825566858053
1702338733766899000,59.64889892578125,0.04390520974993706,0.000323998014209792,0.004220370668917894
1702338733867515400,59.74951538085938,0.04200446605682373,0.004234252963215113,-0.008755438961088657
1702338733968254000,59.85025390625,0.03441726043820381,-0.0049055228009819984,0.0005543807637877762
1702338734068962000,59.950962158203126,0.052235424518585205,0.0035368800163269043,0.0027867078315466642
1702338734169639400,60.05163940429688,0.04206579923629761,0.005483496468514204,0.004565114621073008
1702338734270347500,60.15234741210938,0.04510150104761124,-0.0014199726283550262,0.00020354035950731486
1702338734371055400,60.25305541992188,0.04224921390414238,-0.005599801428616047,0.0004267858457751572
1702338734471763500,60.35376342773438,0.03983502462506294,0.00011062790144933388,0.002500011585652828
1702338734572471600,60.45447143554688,0.04137653112411499,0.003939735237509012,-0.008588772267103195
1702338734673240600,60.55524047851563,0.0399150513112545,0.0033626463264226913,0.001907534897327423
1702338734773979100,60.655979248046876,0.0350118987262249,0.004167498555034399,0.0003241257800254971
1702338734874656500,60.75665649414063,0.04578259214758873,0.0036552841775119305,-0.0002701306657399982
1702338734975364600,60.85736450195313,0.038746800273656845,-0.0025825740303844213,0.0029777351301163435
1702338735076103200,60.958103271484376,0.04400509595870972,-0.016454286873340607,0.0014934355858713388
1702338735176780500,61.05878051757813,0.041687287390232086,0.0031221143435686827,-0.002922452986240387
1702338735277488600,61.15948852539063,0.038552869111299515,0.0046761529520154,0.0027550372760742903
1702338735378196500,61.26019653320313,0.052684035152196884,0.0022748494520783424,0.002669252920895815
1702338735478904600,61.36090454101563,0.03213157877326012,-0.0020685072522610426,-0.002069164300337434
1702338735579612700,61.46161279296875,0.049952663481235504,-0.0012397881364449859,0.005897385999560356
1702338735680290000,61.5622900390625,0.03416316583752632,0.0018754992634057999,-0.0038467859849333763
1702338735780998100,61.662998046875,0.03941328451037407,0.0032295386772602797,-0.0009586777887307107
1702338735881736700,61.76373681640625,0.039424385875463486,0.000015050359252199996,0.0036595556885004044
1702338735982444500,61.86444458007813,0.03667724132537842,0.0028709040489047766,0.002790906233713031
1702338736083183000,61.96518310546875,0.04004647955298424,0.0005608061328530312,-0.002886876231059432
1702338736183860700,62.06586083984375,0.04542744159698486,0.0012932904064655304,-0.006702977232635021
1702338739305745700,65.18774560546875,0.03967614099383354,0.006898869294673204,-0.0002674199640750885
1702338739406453800,65.28845385742187,0.036693599075078964,0.010143622756004333,0.006402700208127499
1702338739507131100,65.38913110351562,0.02980675734579563,0.00506258849054575,0.00128947535995394
1702338739607869700,65.48986962890625,0.03942204639315605,0.002192999003455043,-0.00454888679087162
1702338739708577800,65.59057788085937,0.04505885764956474,0.00446679862216115,0.004918172489851713
1702338739809286000,65.69128588867187,0.046378400176763535,-0.0015648723347112536,-0.004787364974617958
1702338739909993700,65.79199365234375,0.04934049770236015,-0.008391219191253185,-0.0027047020848840475
1702338740010732300,65.89273217773437,0.04667513445019722,0.00119814183562994,0.010612182319164276
1702338740111410000,65.99340991210937,0.045490529388189316,0.0003042563912458718,0.006636094767600298
1702338740212117800,66.09411767578125,0.04350391775369644,0.00043085645302198827,-0.004914868623018265
1702338740312856300,66.19485620117187,0.03777189180254936,0.005662850569933653,-0.0020163010340183973
1702338740413534000,66.29553393554687,0.04757410287857056,0.0021944043692201376,0.00009461920853937045
1702338740514272300,66.39627221679687,0.04180878400802612,-0.0025121504440903664,-0.0029843247029930353
1702338740614950000,66.49694995117187,0.03475138172507286,-0.000018974953491124325,-0.0016871279804036021
1702338740715688400,66.5976884765625,0.05014776065945625,-0.0036061264108866453,-0.002599166939035058
1702338744341101000,70.22310107421875,0.09121762961149216,0.002984169637784362,0.002561892382800579
1702338744441839600,70.32383959960937,0.08596809208393097,0.009904623962938786,0.002288494259119034
1702338744542547700,70.42454760742187,0.07978103309869766,-0.006275835447013378,-0.0006566300871782005
1702338744643255600,70.52525561523437,0.08574553579092026,-0.0028349529020488262,-0.005009843967854977
1702338744743963600,70.62596362304687,0.09788892418146133,-0.006522254552692175,0.004306374117732048
1702338744844671700,70.72667163085937,0.10885237902402878,-0.00278378720395267,0.008481292985379696
1702338744945379600,70.82737963867187,0.10265830904245377,-0.0026053914334625006,0.0006611753487959504
1702338745046087700,70.92808764648437,0.0923619270324707,0.004586955066770315,0.0003626324178185314
1702338745146795800,71.02879565429687,0.09499750286340714,-0.000005202367901802063,-0.011872634291648865
1702338745247534300,71.12953442382812,0.10115593671798706,-0.006353725213557482,0.006690783891826868
1702338745348211700,71.23021166992187,0.11167720705270767,0.004169469699263573,0.009806153364479542
1702338745448919800,71.330919921875,0.15596093237400055,0.0012371595948934555,0.0007804190972819924
1702338745549627600,71.43162768554687,0.1418735831975937,0.013759076595306396,-0.036661937832832336
1702338745650335700,71.53233569335937,0.2410569190979004,0.009666666388511658,-0.08629439026117325
1702338745751043800,71.6330439453125,0.007909059524536133,0.011205891147255898,0.15921546518802643
1702338745851751700,71.73375170898437,0.08055908977985382,-0.13154710829257965,0.47504863142967224
1702338745952459800,71.83445971679687,0.08324197679758072,-0.0962161049246788,0.330033540725708
1702338746053259300,71.93525927734375,0.13768480718135834,0.13360212743282318,-0.6866285800933838
1702338746153937000,72.03593701171874,0.20413784682750702,-0.15941394865512848,-0.09360898286104202
1702338746254644700,72.13664477539062,-0.005247199442237616,-0.01746472902595997,-0.46197378635406494
1702338746355352800,72.23735278320312,-0.25222307443618774,0.09025521576404572,-0.7296246886253357
1702338746456082700,72.33808276367188,0.033399131149053574,-0.12483236938714981,-0.4581301510334015
1702338746556760000,72.43876000976563,0.6917845606803894,-0.12938670814037323,-0.6241199970245361
1702338746657803800,72.5398037109375,0.7337294220924377,-0.053965359926223755,-0.3688989281654358
1702338746758481400,72.6404814453125,-0.8197606205940247,0.8315561413764954,0.2331252247095108
1702338746859186200,72.74118627929687,0.9866569638252258,0.431184858083725,0.08630994707345963
1702338746959863600,72.84186352539062,-1.0646312236785889,1.8581722974777222,-3.0700247287750244
1702338747060327400,72.94232739257812,-0.763624370098114,1.0916885137557983,-2.1098742485046387
1702338747161035500,73.04303540039062,-0.33016762137413025,0.5977706909179688,-1.1299192905426025
1702338747261774000,73.14377416992187,0.23796339333057404,0.09950345009565353,-0.20746882259845734
1702338747362482200,73.24448217773437,-0.012297594919800758,0.4866069555282593,-0.4373193085193634
1702338748168085000,74.0500849609375,-0.049688346683979034,0.4747772216796875,0.9486835598945618
1702338748268793000,74.15079296875,1.254881739616394,0.03386000543832779,-1.532400131225586
1702338750585011500,76.46701147460938,0.08804582804441452,0.0022196860518306494,0.008028960786759853
1702338750685719600,76.56771948242188,0.08639099448919296,0.003734072670340538,0.004162733908742666
1702338750786427400,76.66842749023438,0.09476502239704132,-0.011699729599058628,-0.01054941676557064
1702338750887135500,76.76913549804688,0.08922459185123444,-0.002112583490088582,-0.003918523900210857
1702338750987843600,76.86984350585938,0.10521327704191208,-0.0010763584868982434,0.006798828486353159
1702338751088582000,76.97058178710938,0.10116469860076904,0.002000610576942563,0.0033714266028255224
1702338751189290000,77.0712900390625,0.08562462776899338,0.009361173957586288,-0.0019973532762378454
1702338751289998000,77.171998046875,0.08562228828668594,0.005680956412106752,-0.0012774186907336116
1702338751390675500,77.27267553710938,0.09161015599966049,-0.008584554307162762,0.002189238555729389
1702338751491390200,77.37339013671875,0.09998651593923569,-0.008317934349179268,0.0050867111422121525
1702338751592098300,77.47409838867188,0.04508572816848755,0.009517482481896877,0.005696382839232683
1702338751692806400,77.57480639648438,0.045117855072021484,0.008031132631003857,0.0031022268813103437
1702338751793533200,77.675533203125,0.04285553842782974,0.01047834288328886,-0.010100817307829857
1702338751894241000,77.77624096679688,0.09955894201993942,-0.012956849299371243,0.005584313068538904
1702338751995925800,77.87792578125,0.09954842180013657,-0.010188949294388294,0.005857017356902361
1702338752095718100,77.97771826171875,0.09954667091369629,-0.006390591152012348,0.005361706484109163
1702338752196456700,78.07845678710937,0.09957646578550339,-0.0008704097708687186,0.001848401385359466
1702338755318313200,81.20031323242188,0.06571763008832932,0.006052899174392223,0.0024862573482096195
1702338755418990800,81.30099096679687,0.0760122537612915,0.009732686914503574,-0.0024654294829815626
1702338755519729400,81.4017294921875,0.08607732504606247,-0.0027441305574029684,0.0020917444489896297
1702338755620437200,81.50243725585938,0.07290762662887573,0.00327729107812047,0.0030667136888951063
1702338755721145300,81.60314526367188,0.08368649333715439,-0.004266617354005575,-0.001385929062962532
1702338755821853400,81.703853515625,0.09851393848657608,-0.003484996734187007,-0.0010917488252744079
1702338755922592000,81.80459204101562,0.08176355808973312,-0.003943691495805979,0.0008508518221788108
1702338756023269400,81.90526928710938,0.09969621151685715,-0.004510161001235247,0.008708919398486614
1702338756123977500,82.0059775390625,0.09971781820058823,-0.0025739811826497316,0.006227307487279177
1702338756224716000,82.10671606445312,0.08800961077213287,0.005594321992248297,0.00045858416706323624
1702338756325423900,82.207423828125,0.0887426882982254,0.00032008823473006487,0.004755101166665554
1702338756426132000,82.30813208007812,0.08875320106744766,-0.000535151397343725,0.003933528903871775
1702338756526809300,82.40880932617188,0.09978032112121582,-0.0024729249998927116,0.0030406105797737837
1702338756627548000,82.5095478515625,0.08853590488433838,0.0024387070443481207,-0.0033299901988357306
1702338756728256000,82.61025610351562,0.09974002093076706,0.0010985883418470621,-0.008035678416490555
1702338756828964000,82.71096411132812,0.11142369359731674,-0.002501895185559988,0.0027201082557439804
1702338756929672000,82.811671875,0.09803729504346848,0.0027084508910775185,0.010809370316565037
1702338757030410500,82.91241040039063,0.07271311432123184,-0.00047515530604869127,0.0009360702824778855
1702338757131118600,83.01311865234375,0.09019424021244049,0.004158554133027792,0.0004964701947756112
1702338757231826400,83.11382641601563,0.09520836919546127,0.000711168278940022,-0.006449293345212936
1702338757332534500,83.21453442382813,0.09901102632284164,0.0010969808790832758,-0.0010364120826125145
1702338757433242600,83.31524267578125,0.0925307422876358,-0.004765667952597141,0.006596127990633249
1702338757533950500,83.41595043945313,0.10163258761167526,0.0016564944526180625,0.00039500577258877456
1702338757634689000,83.51668896484375,0.08226414769887924,0.0009395522065460682,0.00031986349495127797
1702338757735366700,83.61736669921875,0.094707190990448,0.0008593627135269344,-0.004362249281257391
1702338757836105000,83.71810498046875,0.10304617136716843,0.0014227130450308323,-0.001685393857769668
1702338757936813000,83.81881298828125,0.09490930289030075,-0.004463330376893282,0.010899371467530727
1702338758037490700,83.91949072265625,0.09230994433164597,-0.0033823628909885883,0.003088928759098053
1702338758138198500,84.02019848632813,0.08777245134115219,0.005770902615040541,-0.013408711180090904
1702338758238906600,84.12090673828125,0.08941852301359177,0.0026776588056236506,0.0007844988140277565
1702338758339614700,84.22161474609375,0.09585149586200714,-0.007250321097671986,0.008240669965744019
1702338759145217500,85.02721752929688,0.08388977497816086,-0.0012423517182469368,-0.0059980289079248905
1702338759245925600,85.12792553710938,0.10133643448352814,-0.0035906322300434113,0.010129357688128948
1702338760152297700,86.03429760742188,0.09970321506261826,-0.0012305380078032613,0.004613724537193775
1702338760253005800,86.135005859375,0.09226963669061661,0.005148676224052906,-0.010909903794527054
1702338760353713700,86.23571362304688,0.07264301925897598,0.003354031592607498,0.008857387118041515
1702338760454421800,86.336421875,0.07863497734069824,0.0008263550698757172,0.004355787765234709
1702338760555160300,86.43716040039062,0.09348578751087189,-0.00373282004147768,-0.000985766644589603
1702338760655823400,86.5378232421875,0.10019738972187042,-0.001528893830254674,0.00450042262673378
1702338761058655500,86.94065551757812,0.09590289741754532,0.0030267126858234406,-0.004182913806289434
1702338761159363300,87.04136328125,0.0975758358836174,-0.0052177151665091515,0.010560131631791592
1702338761260071400,87.14207153320312,0.08755224198102951,-0.0036917999386787415,0.0031686618458479643
1702338761360779500,87.24277954101562,0.08780574798583984,0.0027841099072247744,0.0039800307713449
1702338761461487400,87.3434873046875,0.09285493195056915,-0.0016002757474780083,0.0007302390295080841
1702338761562195500,87.44419555664062,0.09954550117254257,0.0006552690756507218,-0.0028114691376686096
1702338761662934000,87.54493408203125,0.09690993279218674,-0.0013953720917925239,-0.003363741561770439
1702338761763611400,87.645611328125,0.09998126327991486,-0.001904869917780161,-0.005663106217980385
1702338761864319500,87.74631958007812,0.09516981989145279,0.005713035352528095,-0.005031054839491844
1702338761965027600,87.84702758789062,0.10016292333602905,-0.002647813642397523,0.003930398263037205
1702338762065979600,87.94797973632812,0.09991408884525299,-0.002902801614254713,0.005509298760443926
1702338762166504400,88.04850439453125,0.08798390626907349,-0.00044960895320400596,0.011494148522615433
1702338762267212500,88.14921264648437,0.09495778381824493,0.005474869627505541,0.004285683389753103
1702338762367951000,88.249951171875,0.09236075729131699,-0.0012716561323031783,-0.01026083156466484
1702338762468628500,88.35062841796875,0.09328893572092056,0.0021450503263622522,-0.00303859356790781
1702338762569336600,88.45133666992187,0.09325738996267319,0.001295992056839168,0.00009307674918090925
1702338762670044700,88.55204467773437,0.09899000078439713,0.002688125241547823,0.0038465578109025955
1702338762770752500,88.65275244140625,0.09372235834598541,-0.001962977694347501,-0.004550775978714228
1702338766295441400,92.17744140625,0.08846171945333481,-0.001963298302143812,-0.005368086043745279
1702338766396180000,92.27817993164062,0.09204007685184479,0.0017658993601799011,0.004758021794259548
1702338766496857300,92.378857421875,0.08701133728027344,-0.00007489698327844962,-0.0011545971501618624
1702338766597596000,92.47959594726562,0.08247268199920654,0.004088705405592918,0.0041526854038238525
1702338766698304000,92.58030395507812,0.09971139580011368,0.001235783682204783,0.0019897872116416693
1702338766799011800,92.68101171875,0.08582323044538498,0.007261183578521013,-0.006325340364128351
1702338766899750400,92.78175048828125,0.09178715199232101,-0.0047545344568789005,-0.0021025598980486393
1702338767000458500,92.88245849609375,0.08148667961359024,-0.007449944969266653,0.0097113698720932
1702338767101075000,92.98307495117187,0.10733073204755783,0.0014413080643862486,0.0001753928227117285
1702338767201844000,93.08384399414062,0.08055265992879868,0.011817111633718014,0.0021935738623142242
1702338767302551800,93.1845517578125,0.07577101141214371,0.0013897098833695054,-0.005045028403401375
1702338767403260000,93.28526000976562,0.07432062923908234,0.0001995039638131857,0.003850418608635664
1702338767503968000,93.38596801757812,0.10329150408506393,-0.006688951514661312,0.001611072919331491
1702338767604706600,93.48670654296875,0.09824991226196289,-0.0041404105722904205,0.004832306411117315
1702338767705384000,93.58738403320312,0.09707991033792496,-0.005499815568327904,0.005791568197309971
1702338767806092000,93.68809204101562,0.10188084095716476,0.001394873484969139,-0.004500668961554766
1702338767906799900,93.7887998046875,0.07770504802465439,0.012487661093473434,0.002030183095484972
1702338768007538400,93.88953833007812,0.08010639250278473,0.011228878051042557,-0.0020887507125735283
1702338768108277000,93.99027709960937,0.0841573029756546,-0.006691252812743187,-0.0008667510119266808
1702338768209015600,94.091015625,0.09732699394226074,-0.010101833380758762,0.0007360255694948137
1702338768309693000,94.19169287109375,0.11238458007574081,-0.007501794025301933,0.009713031351566315
1702338768410431500,94.29243139648437,0.10211741179227829,0.0022749167401343584,-0.000005001574663765496
1702338768511109000,94.39310913085937,0.09063875675201416,0.0032881053630262613,-0.0011477883672341704
1702338768611817000,94.49381689453125,0.07771790027618408,-0.0018365660216659307,-0.010440769605338573
1702338768712525000,94.59452514648437,0.07767233997583389,-0.002321592066437006,-0.005981664638966322
1702338768813233200,94.69523315429687,0.03934318944811821,0.017653781920671463,-0.009954293258488178
1702338768913971700,94.7959716796875,0.10801415890455246,0.004797386471182108,0.012536639347672462
1702338769014649000,94.89664916992187,0.093211829662323,-0.011797407642006874,0.006175338756293058
1702338769115357200,94.99735717773437,0.0963883027434349,-0.008364793844521046,0.011149769648909569
1702338769216065000,95.09806494140625,0.08325657993555069,-0.002319041173905134,0.0009788575116544962
1702338769316773000,95.19877319335937,0.07012368738651276,0.012705857865512371,0.003819441655650735
1702338769417450500,95.29945043945312,0.06342434883117676,-0.00024329969892278314,-0.005588210187852383
1702338769518219800,95.4002197265625,0.09906768798828125,-0.008394623175263405,-0.0008292118436656892
1702338770424500200,96.30650024414062,0.0952165499329567,-0.0034430481027811766,-0.010802306234836578
1702338771230164200,97.11216430664062,0.08794126659631729,0.001054156105965376,0.007890988141298294
1702338771330872300,97.21287231445312,0.09632463753223419,-0.005321110133081675,-0.00195952202193439
1702338771431580200,97.313580078125,0.10039015114307404,-0.003318280214443803,0.00845071766525507
1702338771532288300,97.41428833007812,0.09061013907194138,0.012788326479494572,0.00039796289638616145
1702338771632996400,97.51499633789062,0.09515346586704254,-0.0026089614257216454,-0.0008995715761557221
1702338771733704200,97.6157041015625,0.0951639786362648,-0.003762203035876155,-0.00167012435849756
1702338771834412300,97.71641235351562,0.08989633619785309,-0.0012380358530208468,0.0033685150556266308
1702338772237245700,98.11924560546875,0.08465322107076645,-0.0016621315153315663,0.0044965981505811214
1702338772337953500,98.21995361328125,0.09589530527591705,-0.004065908491611481,-0.0015187355456873775
1702338772438661600,98.32066162109375,0.09229475259780884,0.003362984163686633,0.0009881852893158793
1702338772539369700,98.42136962890625,0.09731356054544449,0.002633502474054694,-0.003561696270480752
1702338772640077600,98.52207763671875,0.09419900178909302,0.003746664384379983,0.005209998227655888
1702338772740785700,98.62278564453125,0.08917669206857681,0.002980154938995838,-0.005266320426017046
1702338772841493800,98.72349365234375,0.10327748209238052,-0.0050870440900325775,-0.0016415478894487023
1702338772942232300,98.824232421875,0.10612275451421738,-0.0051493095234036446,-0.0015719457296654582
1702338773042940200,98.92494018554687,0.09965940564870834,0.0021940702572464943,0.011617380194365978
1702338773143648300,99.02564819335937,0.08963347971439362,0.001923039322718978,-0.00016632974438834935
1702338773244386800,99.12638671875,0.09611610323190689,-0.0016941659850999713,0.0007925214595161378
1702338773345125400,99.22712548828125,0.0992201492190361,-0.004222983494400978,0.002663904568180442
1702338773445802800,99.327802734375,0.08749908208847046,0.007260644808411598,0.005616759415715933
1702338773546510800,99.4285107421875,0.09397002309560776,0.00016289115592371672,-0.007422829978168011
1702338773647249400,99.52924951171875,0.08917319029569626,-0.0065129962749779224,0.00002717096322157886
1702338773747926800,99.6299267578125,0.08916208893060684,-0.00017278250015806407,0.006584144197404385
1702338773848635000,99.730634765625,0.09107100963592529,-0.0027017544489353895,0.0015882373554632068
1702338773949342700,99.8313427734375,0.10305434465408325,0.008236880414187908,0.0045999702997505665
1702338774754976300,100.63697631835937,0.09247642010450363,0.0007839443860575557,0.002562932902947068
1702338774855654000,100.73765380859375,0.09248459339141846,0.0009680580114945769,0.0017330822302028537
1702338774956392400,100.83839233398437,0.08867784589529037,0.005061234347522259,0.0007256846874952316
1702338775057100300,100.93910034179687,0.0913093313574791,0.00041530412272550166,-0.0008121717837639153
1702338775157778000,101.03977783203125,0.09992927312850952,-0.00026455067563802004,0.005880455486476421
1702338775258516500,101.1405166015625,0.07912623137235641,0.010417387820780277,-0.000856437545735389
1702338775359224300,101.24122436523437,0.07172127068042755,-0.00042083050357177854,-0.000673661008477211
1702338775459932400,101.34193237304687,0.0882193073630333,-0.008807472884654999,0.0008076356607489288
1702338775560640500,101.442640625,0.08485358208417892,-0.005114366766065359,0.0017160786082968116
1702338775661348400,101.54334838867187,0.10639262199401855,0.002404402242973447,-0.0006462071323767304
1702338775762026000,101.64402587890625,0.08390378952026367,0.004099960904568434,0.0024401387199759483
1702338775862733800,101.74473388671875,0.08437927067279816,0.006228353828191757,-0.0007689373451285064
1702338775963442000,101.84544189453125,0.07384748756885529,0.0010868271347135305,-0.003039770992472768
1702338776064150000,101.94614990234375,0.0867677554488182,-0.004835566971451044,0.005926364101469517
1702338776164857900,102.04685791015625,0.09610851109027863,-0.004184167832136154,0.011091439053416252
1702338776265566000,102.14756591796875,0.09495719522237778,-0.0013103213859722018,0.0026709961239248514
1702338776366274000,102.24827416992187,0.0949823185801506,0.000010271253813698422,0.00021257605112623423
1702338776466982000,102.34898193359375,0.08491315692663193,0.0008441435056738555,-0.0137269776314497
1702338777272646100,103.15464624023437,0.09849699586629868,0.0019703591242432594,0.00603953842073679
1702338777373354000,103.25535400390625,0.09060195833444595,0.0019560949876904488,0.001687356154434383
1702338777474062000,103.35606201171875,0.102323018014431,0.007303896360099316,0.004495293367654085
1702338777574770200,103.45677026367187,0.08129449933767319,-0.0021062425803393126,-0.004086880013346672
1702338777675478000,103.55747802734375,0.09037414938211441,-0.0017294747522100806,0.003339317860081792
1702338777776186000,103.65818603515625,0.08392306417226791,-0.0006492463871836662,0.0015220212517306209
1702338777876924700,103.75892456054687,0.08391781151294708,0.0007473190198652446,0.001814084011130035
1702338777977602000,103.85960205078125,0.09301205724477768,0.0039758095517754555,0.0014307789970189333
1702338778078310100,103.96031005859375,0.09543384611606598,-0.0014785598032176495,0.003073175670579076
1702338778179018000,104.06101806640625,0.09636727720499039,0.0008978899568319321,-0.004943463485687971
1702338778279726000,104.16172607421875,0.09204007685184479,-0.003799166064709425,-0.0021579330787062645
1702338778380434200,104.26243408203125,0.09463067352771759,-0.0027652194257825613,-0.0012030064826831222
1702338778481142000,104.36314208984375,0.09224977344274521,0.000314503675326705,0.005100839771330357
1702338778581850000,104.46385009765625,0.09966349601745605,-0.0033874232321977615,-0.002649931004270911
1702338778682558200,104.56455810546875,0.10445157438516617,0.0023522244300693274,0.006237410940229893
1702338778783266000,104.66526611328125,0.0738387256860733,0.01064496673643589,0.001360747846774757
1702338778883974100,104.76597412109375,0.08582206070423126,0.009961736388504505,0.0012694690376520157
1702338778984682200,104.86668212890625,0.11048325151205063,-0.007244577165693045,0.003852718509733677
1702338779085390000,104.96739013671875,0.09230994433164597,-0.007096091751009226,-0.0002563124580774456
1702338779186067700,105.06806762695312,0.08726777136325836,-0.0070393322966992855,0.0013731422368437052
1702338779286897700,105.16889770507812,0.09133094549179077,-0.0017862798413261771,-0.0014274840941652656
1702338779387605800,105.26960571289062,0.10017051547765732,0.000491623766720295,0.0013395458227023482
1702338779488313900,105.37031396484375,0.08677009493112564,0.005684042349457741,-0.0015112878754734993
1702338779589021700,105.47102172851562,0.0870090052485466,0.0007753661484457552,0.0017414333997294307
1702338779689699300,105.57169921875,0.08485474437475204,-0.0010907403193414211,-0.0048306905664503574
1702338779790407200,105.6724072265625,0.09989597648382187,0.001341545837931335,0.003740904154255986
1702338779891115300,105.773115234375,0.09559448063373566,0.001522250473499298,-0.002347253728657961
1702338779991823400,105.8738232421875,0.08984434604644775,0.002696550451219082,-0.0006399277481250465
1702338780092531200,105.97453125,0.09103713184595108,0.004838926717638969,0.0015019875718280673
1702338780193239300,106.0752392578125,0.09629660099744797,-0.011059876531362534,0.004411936737596989
1702338780293947400,106.17594750976562,0.08960602432489395,-0.004710299428552389,0.003451862372457981
1702338780394686000,106.27668603515625,0.09727793186903,0.003063868498429656,0.0012628519907593727
1702338780495363300,106.37736328125,0.07862096279859543,0.004596773535013199,0.0011191845405846834
1702338780596102000,106.47810180664062,0.08771929889917374,-0.0052656023763120174,0.005458041559904814
1702338781099581000,106.98158081054687,0.09754721075296402,0.001741696847602725,-0.0008655462297610939
1702338781200288800,107.08228881835937,0.10258237272500992,0.0023820889182388783,0.004023265093564987
1702338781301027300,107.18302734375,0.08273728936910629,-0.0010789596708491445,0.006943746469914913
1702338781401735400,107.2837353515625,0.08467542380094528,-0.004303245805203915,-0.0029912793543189764
1702338781502443500,107.38444360351562,0.09542683511972427,-0.0062090009450912476,-0.00540649238973856
1702338781603181800,107.48518188476562,0.09611552208662033,0.005108078476041555,0.0016133912140503526
1702338781703859500,107.585859375,0.09345541149377823,0.0005057876696810126,-0.0026384585071355104
1702338781804567300,107.6865673828125,0.09896663576364517,-0.0007955823675729334,0.003935773856937885
1702338781905299700,107.7872998046875,0.08866383135318756,0.006405186373740435,-0.0030368228908628225
1702338782005977000,107.88797705078125,0.08555453270673752,-0.002776655601337552,0.005440590903162956
1702338782106685200,107.98868530273438,0.09969504177570343,-0.002298276172950864,0.002394887385889888
1702338782207393000,108.08939306640625,0.09203364700078964,0.001586267026141286,-0.005235836375504732
1702338782308131600,108.19013159179687,0.10302630811929703,-0.00019136500486638397,0.0025318374391645193
1702338782408839700,108.29083959960937,0.08099718391895294,0.0024565900675952435,-0.00046092981938272715
1702338782509517000,108.39151708984375,0.08485241234302521,0.004753694403916597,0.016195930540561676
1702338782610194700,108.49219458007812,0.09519318491220474,-0.005372821819037199,0.0025662551634013653
1702338782710933200,108.59293334960938,0.09330645948648453,0.0031870128586888313,-0.0010894123697653413
1702338782811671600,108.69367163085937,0.08924620598554611,0.0026219249702990055,0.0006516285357065499
1702338783113765000,108.99576513671875,0.09061013907194138,0.0022416284773498774,0.0016535863978788257
1702338783214473200,109.09647314453125,0.0913163423538208,0.0024528582580387592,0.002686484484001994
1702338783315181000,109.19718115234375,0.06956292688846588,0.005597884766757488,0.0015623988583683968
1702338783415889200,109.29788916015625,0.07866418361663818,0.0024428381584584713,-0.0045239427126944065
1702338783516597200,109.39859716796875,0.08414620161056519,-0.005790812894701958,0.003383912146091461
1702338783617305000,109.49930517578125,0.09157744795084,-0.005431483034044504,0.005096623208373785
1702338783718013200,109.60001318359375,0.08582790195941925,-0.003517993027344346,0.004722061567008495
1702338783818721300,109.70072119140625,0.08490206301212311,0.004066850990056992,-0.0026145640294998884
1702338783919459800,109.8014599609375,0.09781006723642349,0.005998062435537577,0.00417017238214612
1702338784020137200,109.90213720703125,0.09781824797391891,0.003943972289562225,0.00377198145724833
1702338784120967400,110.00296752929688,0.08800961077213287,-0.0017515368526801467,-0.0025845456402748823
1702338784221584000,110.103583984375,0.08966969698667526,-0.009009672328829765,0.001002934412099421
1702338784322261200,110.20426123046875,0.08820762485265732,-0.0008237652946263552,-0.0020730432588607073
1702338784422969300,110.30496923828125,0.08892376720905304,0.00014462127001024783,0.003916278947144747
1702338784523677200,110.40567724609375,0.10135044902563095,-0.0016246207524091005,-0.00233522430062294
1702338784624385300,110.50638525390625,0.1011127158999443,0.0004079991194885224,-0.0015409596962854266
1702338784725246000,110.60724584960937,0.09966875612735748,0.008285006508231163,0.0030854057986289263
1702338784825801200,110.70780126953125,0.09728085249662399,-0.0015813555801287293,0.002549461554735899
1702338784926539800,110.80853979492187,0.09227138757705688,-0.00323874456807971,0.0010198832023888826
1702338785631404300,111.513404296875,0.09056632965803146,-0.0020247490610927343,0.003315533045679331
1702338785732142800,111.61414282226562,0.08697979897260666,-0.0020120181143283844,0.0021214799489825964
1702338785832820200,111.7148203125,0.09558746963739395,-0.00754594337195158,-0.004473534412682056
1702338785933558800,111.81555883789062,0.09844150394201279,0.0033857866656035185,0.007130274083465338
1702338786034267000,111.91626684570312,0.09655127674341202,-0.004782536532729864,0.014377127401530743
1702338786134975000,112.01697509765626,0.08845938742160797,0.003225449938327074,0.0022874537389725447
1702338786235652400,112.11765234375,0.08417774736881256,0.005945748649537563,-0.010405456647276878
1702338786336360400,112.2183603515625,0.08463745564222336,0.009353499859571457,-0.0032417962793260813
1702338786437068300,112.319068359375,0.09632463753223419,-0.0027153771370649338,-0.002417576964944601
1702338786537776400,112.4197763671875,0.09511082619428635,-0.004614703357219696,0.004040323197841644
1702338786638484500,112.520484375,0.10133059322834015,-0.0059674810618162155,0.0027729261200875044
1702338786739192300,112.6211923828125,0.09534797817468643,-0.00005364143362385221,0.0028208151925355196
1702338786839900400,112.721900390625,0.08532029390335083,0.001281109405681491,0.004319909494370222
1702338786940608500,112.8226083984375,0.1018405333161354,0.004155926406383514,-0.0022701125126332045
1702338787041316400,112.92331640625,0.10183936357498169,0.0025266760494560003,-0.0018654231680557132
1702338787142024400,113.0240244140625,0.08701600879430771,0.004172362852841616,0.003121110377833247
1702338787242732500,113.12473266601563,0.0920342355966568,-0.0063246614299714565,0.001681898138485849
1702338787343440400,113.2254404296875,0.09372586011886597,-0.0046571702696383,0.003398542758077383
1702338787444148500,113.3261484375,0.08272327482700348,0.001519273966550827,0.004564393311738968
1702338788149104600,114.03110473632813,0.09513185173273087,0.0035004669334739447,0.0016470514237880707
1702338788249812500,114.1318125,0.0987306460738182,0.0016527638072147965,0.004528624936938286
1702338788350856200,114.23285620117187,0.09108444303274155,-0.003580838907510042,0.001727359602227807
1702338788451228700,114.33322875976563,0.09349104017019272,0.0027947179041802883,0.0033513836096972227
1702338788551936500,114.4339365234375,0.08464737981557846,-0.005379113834351301,-0.001825118437409401
1702338788652644600,114.53464453125,0.08415438234806061,-0.002368768211454153,0.006734730210155249
1702338788753352400,114.6353525390625,0.09733809530735016,0.006126800086349249,-0.00042549893260002136
1702338788854060500,114.736060546875,0.09781356900930405,0.005893736612051725,0.0021114496048539877
1702338788954768600,114.8367685546875,0.11314978450536728,-0.004770454950630665,0.004970743786543608
1702338789055507200,114.93750708007812,0.08132429420948029,0.009547590278089046,-0.002733506727963686
1702338789156184600,115.0381845703125,0.07487087696790695,0.0025664535351097584,0.0014548558974638581
1702338789256892700,115.138892578125,0.09496887773275375,0.002073953626677394,-0.003930617123842239
1702338789357600500,115.2396005859375,0.09591107815504074,-0.011713486164808273,-0.0006610840791836381
1702338789458339000,115.34033911132812,0.0956534743309021,0.0021501602604985237,0.0009982157498598099
1702338789559016700,115.4410166015625,0.09850984811782837,-0.004771280102431774,-0.001783809857442975
1702338789659724500,115.541724609375,0.08940567076206207,0.0015121515607461333,-0.003337455913424492
1702338789760432600,115.6424326171875,0.09633456915616989,-0.003984726499766111,0.0026318139862269163
1702338789861140700,115.743140625,0.08364560455083847,0.0011265557259321213,0.0019919320475310087
1702338789961848600,115.8438486328125,0.09514003247022629,-0.004203506279736757,0.004210121463984251
1702338790062587100,115.94458715820312,0.08892901986837387,0.00032762711634859443,0.0022916521411389112
1702338790163356200,116.04535620117187,0.08893544971942902,0.00040522226481698453,0.0017051080940291286
1702338790264461000,116.1464609375,0.09351440519094467,0.0021954653784632683,0.00821392796933651
1702338790364741600,116.24674169921875,0.09544552862644196,0.00512679573148489,-0.003465561894699931
1702338790465449700,116.34744970703125,0.08180035650730133,0.0047386884689331055,-0.0038102874532341957
1702338790566157800,116.44815771484375,0.08106376975774765,0.002214152831584215,0.002847913186997175
1702338790666865700,116.54886572265625,0.09375857561826706,-0.0016015717992559075,0.0064911129884421825
1702338790767604200,116.64960424804687,0.08946174383163452,-0.005000588949769735,0.0017238730797544122
1702338790868281900,116.75028173828125,0.07800587266683578,-0.0038055151235312223,0.003962616436183453
1702338790969020400,116.8510205078125,0.08231555670499802,0.0006825301679782569,0.0015718635404482484
1702338791069697800,116.95169775390625,0.0813552513718605,0.002049580216407776,-0.0019902342464774847
1702338791170436400,117.05243627929687,0.10072018206119537,-0.005197601858526468,-0.002437318442389369
1702338791271144200,117.15314428710937,0.10164660215377808,0.0036289917770773172,-0.007623057346791029
1702338791371852300,117.25385229492187,0.08534248918294907,0.006073604803532362,-0.001962844282388687
1702338791472621300,117.35462133789062,0.07838614284992218,0.0031289563048630953,0.004904765170067549
1702338791573237800,117.45523779296875,0.08939456939697266,-0.004644297529011965,0.0008856529602780938
1702338791673945900,117.55594580078125,0.09802444279193878,-0.004551146645098925,0.001317239599302411
1702338791774654000,117.65665405273438,0.08151588588953018,0.009191599674522877,0.0027338718064129353
1702338794292321800,120.17432177734375,0.0898875743150711,-0.0067233797162771225,0.012090230360627174
1702338794393060400,120.27506030273437,0.08849268406629562,-0.004773203283548355,0.004021311644464731
1702338794493737700,120.37573779296875,0.09018488973379135,0.0010463856160640717,0.00208908854983747
1702338794594445800,120.47644580078125,0.09354010969400406,-0.00135479134041816,-0.00675174267962575
1702338794695123500,120.57712353515625,0.08776310831308365,-0.007256888784468174,-0.0061362204141914845
1702338794795861800,120.67786181640625,0.10207009315490723,-0.000907114997971803,0.0005133642116561532
1702338794896600300,120.77860034179687,0.09560032188892365,0.008754833601415157,0.007111856248229742
1702338794997278000,120.87927783203125,0.09634391218423843,0.0006484078476205468,0.005554120987653732
1702338795098016500,120.9800166015625,0.08799325674772263,-0.0011691261315718293,-0.004477030131965876
1702338795198694000,121.08069384765625,0.09372586011886597,0.0031776793766766787,0.004331537056714296
1702338795299402000,121.18140209960937,0.0951768308877945,-0.00521472841501236,-0.004596830811351538
1702338795400109800,121.28210986328125,0.09993161261081696,0.0019281869754195213,0.0044775959104299545
1702338795500818000,121.38281787109375,0.09613245725631714,0.009594233706593513,-0.0037913580890744925
1702338795601526000,121.48352612304687,0.09371534734964371,-0.0024256245233118534,0.002611488336697221
1702338795702233900,121.58423388671875,0.09252256155014038,-0.006972866132855415,-0.0013629564782604575
1702338795802972400,121.68497241210937,0.09608923643827438,-0.0017982737626880407,0.00012391676136758178
1702338795903680500,121.78568041992187,0.08532847464084625,0.0042703524231910706,0.005241276230663061
1702338798018518000,123.90051806640625,0.09734393656253815,0.000212412909604609,-0.0004439080075826496
1702338798119226000,124.00122607421875,0.09733225405216217,0.0002997944538947195,0.006899736355990171
1702338799327722200,125.20972216796875,0.08559950441122055,0.00660368287935853,0.0008127741748467088
1702338799428430300,125.31043041992187,0.08990567922592163,-0.0024613828863948584,-0.0011152233928442001
1702338799529138200,125.41113818359375,0.10378684103488922,-0.0002493691281415522,0.005806600209325552
1702338799629846300,125.51184619140625,0.09303192049264908,-0.00018400639237370342,-0.000446326652308926
1702338799730554400,125.61255444335937,0.10379093140363693,-0.0033042978029698133,-0.001271084533073008
1702338799831262200,125.71326220703125,0.09302666038274765,-0.0037073043640702963,0.0038905772380530834
1702338799931970300,125.81397021484375,0.08703529089689255,0.008937250822782516,-0.00452030124142766
1702338800032678400,125.91467846679687,0.09132510423660278,0.006404794752597809,-0.003987323027104139
1702338800133416700,126.01541674804687,0.08795645087957382,-0.0023795529268682003,0.0042077116668224335
1702338800234094300,126.11609423828125,0.08582089096307755,-0.0025272658094763756,0.00995122641324997
1702338800334802400,126.21680249023437,0.08729113638401031,-0.0002855415514204651,0.0027692297007888556
1702338800435510300,126.31751025390625,0.09927038103342056,-0.002252796432003379,-0.0016937541076913476
1702338800536248800,126.41824877929687,0.08157020807266235,-0.0032802869100123644,0.005356668494641781
1702338800636926200,126.51892626953125,0.08779581636190414,0.0024083175230771303,-0.0012699253857135773
1702338800737664800,126.61966479492187,0.08730632066726685,0.0013275438686832786,-0.0010454386938363314
1702338800838342400,126.72034228515625,0.08707033842802048,0.0014647210482507944,-0.0013540486106649041
1702338800939050200,126.82105029296875,0.08560651540756226,-0.0010343288304284215,0.00212713866494596
1702338801039758300,126.92175830078125,0.08943020552396774,-0.004539053421467543,-0.005879278294742107
1702338801140557800,127.02255786132812,0.0946844145655632,0.005331295542418957,-0.002820459194481373
1702338801241235500,127.1232353515625,0.09083735942840576,0.00549762649461627,0.003558757482096553
1702338801341943300,127.223943359375,0.08053455501794815,-0.0014077163068577647,-0.00036780742811970413
1702338801442681900,127.32468188476562,0.0925009474158287,0.0036970707587897778,-0.005472343415021896
1702338801543359500,127.425359375,0.0936914011836052,0.0008878685184754431,0.0058303941041231155
1702338801644067300,127.5260673828125,0.08363860100507736,-0.0010553220054134727,0.007034742273390293
1702338801744775400,127.626775390625,0.08701717853546143,-0.00681327423080802,0.001808060216717422
1702338801845910800,127.72791088867187,0.09684918075799942,-0.002676935400813818,-0.00012552310363389552
1702338801946191400,127.82819140625,0.09444725513458252,0.0018254071474075317,0.0013697560643777251
1702338802046930000,127.92892993164062,0.09132977575063705,0.00036340137012302876,0.0008873779443092644
1702338802147607600,128.02960766601564,0.09827502816915512,-0.0026344575453549623,0.0004818488087039441
1702338802248346000,128.13034619140626,0.09731239080429077,-0.003641898278146982,0.006183096673339605
1702338802349023500,128.2310234375,0.09732290357351303,-0.0019225191790610552,0.0049674492329359055
1702338802449731600,128.33173168945314,0.08798974752426147,0.0012353798374533653,-0.00039360934169963
1702338802550439400,128.432439453125,0.08799558877944946,0.006261217407882214,-0.0006978383171372116
1702338802651147500,128.5331474609375,0.08967436850070953,0.000909843947738409,0.0032326055224984884
1702338802751855600,128.63385571289064,0.09205643087625504,-0.000744325399864465,-0.005822453647851944
1702338802852594200,128.73459423828126,0.09686728566884995,0.004493004642426968,0.011150938458740711
1702338802953271600,128.835271484375,0.0937679186463356,0.0013611949980258942,0.0010467985412105918
1702338803053979600,128.93597973632814,0.09305236488580704,-0.0044624111615121365,-0.008717763237655163
1702338805571603500,131.453603515625,0.08797689527273178,0.009755581617355347,-0.0032941303215920925
1702338805672342000,131.55434204101562,0.07696379721164703,0.0050579519011080265,0.0027455086819827557
1702338806075143400,131.95714331054688,0.09489995241165161,0.0011654285481199622,0.010218828916549683
1702338806175851500,132.0578515625,0.10283004492521286,0.00006786009907955304,-0.001988025614991784
1702338806276559600,132.1585595703125,0.09229884296655655,0.003645391669124365,0.0008338118204846978
1702338806377267500,132.25926733398438,0.09300972521305084,0.001140749198384583,-0.007130657788366079
1702338806478006000,132.36000610351562,0.09754019975662231,0.0021738482173532248,0.0050878883339464664
1702338806578714000,132.46071411132812,0.10186155885457993,0.007610838394612074,0.009142066352069378
1702338806679422000,132.561421875,0.106667160987854,-0.003055441891774535,-0.0014004409313201904
1702338806780099600,132.662099609375,0.0978270098567009,-0.00502603966742754,-0.0025868364609777927
1702338806880807700,132.7628076171875,0.0927848368883133,0.0013581032399088144,0.00021780580573249608
1702338806981546000,132.8635458984375,0.09634741395711899,-0.00007592947076773271,-0.0067281038500368595
1702338807082315300,132.96431518554687,0.0977574959397316,-0.007580195087939501,0.00008196011185646057
1702338807182992600,133.06499267578124,0.10517881065607071,0.0025581629015505314,0.007499204482883215
1702338807283731200,133.16573120117187,0.09800750017166138,0.006445382721722126,0.0076545909978449345
1702338807384408600,133.26640869140624,0.10163433849811554,0.003581003285944462,0.0010515537578612566
1702338807485147100,133.36714721679687,0.08729405701160431,0.0006316176732070744,0.00023203474120236933
1702338807585824800,133.46782470703124,0.1050059124827385,-0.002132589928805828,-0.002970305737107992
1702338807686532600,133.56853271484374,0.10044213384389877,-0.0074704485014081,0.005748169496655464
1702338808089334300,133.97133422851562,0.08898860216140747,-0.0008327656541951001,-0.012700586579740047
1702338808190042000,134.0720419921875,0.08489739149808884,-0.0038296969141811132,-0.001129808253608644
1702338808290780700,134.17278076171874,0.09465871006250381,0.00007657976675545797,-0.006793425418436527
1702338808391488800,134.27348876953124,0.09461548179388046,0.001150305150076747,-0.0026415891479700804
1702338808492196900,134.37419677734374,0.087227463722229,-0.0007429255056194961,0.008571202866733074
1702338808592904700,134.47490478515624,0.09799172729253769,0.0010306518524885178,-0.0035531444009393454
1702338808693612800,134.57561279296874,0.10039832442998886,0.002548894612118602,0.00023233593674376607
1702338808794351400,134.67635131835937,0.08842609077692032,-0.002675322350114584,0.004289452917873859
1702338808895028700,134.77702880859374,0.09201612323522568,-0.0002386940032010898,-0.0011871712049469352
1702338808995736800,134.87773681640624,0.0932217612862587,-0.0005992420483380556,0.006347235757857561
1702338809096444700,134.97844458007813,0.09180759638547897,0.0022915233857929707,0.004578521940857172
1702338809197152800,135.07915283203124,0.08800376951694489,-0.0014589903876185417,0.0024584110360592604
1702338809297860900,135.17986083984374,0.09997250139713287,0.0016161806415766478,-0.0021083280444145203
1702338809398568700,135.28056860351563,0.09254242479801178,0.0012364624999463558,-0.0027388916350901127
1702338810204202200,136.0862021484375,0.09637311846017838,0.0013381836470216513,0.004192953463643789
1702338810304879900,136.1868798828125,0.08514739573001862,0.0024278026539832354,-0.0018985996721312404
1702338810405588000,136.287587890625,0.09663363546133041,-0.001891598105430603,-0.001891380175948143
1702338810506295800,136.3882958984375,0.08727828413248062,-0.0020157829858362675,-0.0023501652758568525
1702338810607004000,136.48900390625,0.08535125106573105,0.002160607371479273,0.00028307270258665085
1702338810707712000,136.5897119140625,0.0803125873208046,-0.002452524146065116,0.007079656235873699
1702338810808419800,136.690419921875,0.09757115691900253,0.0013340320438146591,0.005995035637170076
1702338810909128000,136.7911279296875,0.09399689733982086,-0.0035988749004900455,0.0004060402570758015
1702338811009866500,136.89186645507812,0.09568618983030319,0.0013046249514445662,-0.0019728110637515783
1702338811110544000,136.9925439453125,0.09137125313282013,-0.0012147072702646255,-0.006507459562271833
1702338811211252000,137.093251953125,0.0896591767668724,0.0006455796537920833,0.005809465888887644
1702338811311959800,137.19395971679688,0.08224546164274216,0.0030439284164458513,0.004172427114099264
1702338811412668000,137.29466796875,0.08010522276163101,0.0013117371127009392,0.003999699372798204
1702338811513376000,137.3953759765625,0.08013442903757095,0.00044421377242542803,0.0013970639556646347
1702338811614083800,137.49608374023438,0.08395402878522873,-0.0033993173856288195,-0.0025039908941835165
1702338811714792000,137.5967919921875,0.0927789956331253,0.0018640952184796333,-0.0033959688153117895
1702338811815500000,137.6975,0.0872403159737587,0.006460587028414011,-0.0027866438031196594
1702338811916207900,137.79820776367188,0.09942634403705597,-0.0005768467672169209,-0.0010148907313123345
1702338812419809000,138.30180908203124,0.07769220322370529,-0.0020297905430197716,0.009196207858622074
1702338812520486700,138.40248657226562,0.08703470230102539,-0.00243532657623291,-0.00273143476806581
1702338812621194500,138.50319458007812,0.07699008285999298,0.005966905038803816,-0.00678638881072402
1702338812721933000,138.60393310546874,0.08463277667760849,0.001333086285740137,0.006213060114532709
1702338812822641200,138.70464111328124,0.08582673221826553,0.0019421307370066643,0.002664096187800169
1702338812923349000,138.80534887695313,0.09637253731489182,-0.004885610193014145,0.000551542267203331
1702338813024087600,138.90608764648437,0.0916043147444725,0.0024105857592076063,0.0030886733438819647
1702338813124765200,139.00676513671874,0.09543734788894653,0.005126099567860365,0.0006588571122847497
1702338813225503700,139.10750366210937,0.08897458761930466,-0.0044599054381251335,0.0032224745955318213
1702338813326150700,139.20815063476562,0.0988001599907875,-0.002257636049762368,0.007050057407468557
1702338813426980600,139.30898071289062,0.09379420429468155,-0.0031338848639279604,-0.00619142921641469
1702338813527597000,139.40959716796874,0.09448931366205215,0.005489575210958719,-0.01099108811467886
1702338813628305200,139.51030517578124,0.0913332849740982,-0.0007669248734600842,-0.0012295295018702745
1702338813729043700,139.61104370117187,0.08818542957305908,0.004409558139741421,0.010320156812667847
1702338813829721000,139.71172119140624,0.08222851902246475,0.0021135418210178614,-0.0032596851233392954
1702338813930465300,139.81246533203125,0.09037122875452042,-0.0027739356737583876,0.007857482880353928
1702338814031142700,139.913142578125,0.09852737188339233,0.0017923321574926376,-0.000055355019867420197
1702338814937453800,140.81945385742188,0.09135548025369644,0.0035479727666825056,-0.005237050354480743
1702338815038192000,140.92019213867187,0.09131751209497452,0.003472384298220277,-0.002285099122673273
1702338815138869800,141.02086987304688,0.08819828182458878,-0.002740709111094475,0.006119855679571629
1702338815239577900,141.12157788085938,0.09444024413824081,0.0037635790649801493,0.002526927040889859
1702338815340285700,141.22228564453124,0.0920540913939476,0.0024797418154776096,-0.00310654379427433
1702338815441024300,141.32302416992187,0.09229709208011627,-0.00006121224578237161,0.002818606561049819
1702338815541702000,141.42370190429688,0.08702944964170456,-0.0037590349093079567,0.002074366668239236
1702338815642409700,141.52440966796874,0.09254125505685806,-0.0011755583109334111,0.008402244187891483
1702338815743148300,141.62514819335937,0.09138468652963638,0.0005615773843601346,0.005328758154064417
1702338815843856400,141.7258564453125,0.09237127751111984,0.0007039773627184331,-0.000287727452814579
1702338815944564200,141.82656420898437,0.09116680920124054,0.0030469014309346676,-0.003741515800356865
1702338816045241900,141.92724194335938,0.09736788272857666,-0.004669216461479664,-0.0030376536305993795
1702338816145949700,142.02794970703124,0.07724417746067047,0.0033316032495349646,-0.0006747562438249588
1702338816246657800,142.12865771484374,0.0781758576631546,0.012170432135462761,-0.005371426697820425
1702338816347366000,142.22936596679688,0.09372293949127197,-0.0014474561903625727,0.0005988746997900307
1702338816448073700,142.33007373046874,0.09299629181623459,-0.0039017738308757544,-0.00733520183712244
1702338816548781800,142.43078173828124,0.07931840419769287,-0.0050726886838674545,-0.0037126652896404266
1702338817052383000,142.93438305664063,0.0911446139216423,-0.0007620533579029143,-0.00641377130523324
1702338817153090800,143.0350908203125,0.09041211754083633,-0.001004221267066896,-0.0043174815364181995
1702338817253799000,143.135798828125,0.08776427805423737,-0.008348523639142513,-0.004232865758240223
1702338817354507000,143.23650708007813,0.08364677429199219,-0.001490857219323516,0.004550912883132696
1702338817455214800,143.33721484375,0.08987589180469513,0.0012779445387423038,-0.0032246375922113657
1702338817555923000,143.4379228515625,0.09631996601819992,-0.005491886753588915,0.006884001661092043
1702338817656631000,143.53863110351563,0.09633748978376389,-0.004811588209122419,0.005131871439516544
1702338817757918700,143.63991870117187,0.08342130482196808,-0.0006825050222687423,0.004112024791538715
1702338817858047000,143.740046875,0.08010756224393845,0.000695993541739881,0.0019862549379467964
1702338817958755000,143.84075512695313,0.09256111830472946,-0.0006345827714540064,0.003911678679287434
1702338818059463000,143.941462890625,0.1002061516046524,0.004863699432462454,-0.007800156716257334
1702338818160201500,144.04220141601562,0.09036363661289215,0.0030700417701154947,-0.00521879643201828
1702338818260879000,144.14287915039063,0.09057333320379257,-0.00016934621089603752,0.0009496694547124207
1702338818361617700,144.24361767578125,0.08864922821521759,0.0026470208540558815,0.004824192263185978
1702338818462295000,144.344294921875,0.09681997448205948,0.002647190820425749,0.003716498613357544
1702338818563033600,144.44503369140625,0.08966268599033356,-0.00017812405712902546,0.00704114930704236
1702338818663711000,144.5457109375,0.0935097336769104,-0.00805987324565649,-0.0010783413890749216
1702338818764419000,144.64641918945313,0.0772395059466362,0.0011807744158431888,-0.0019834439735859632
1702338822087691800,147.96969189453125,0.09518150240182877,0.0029431255534291267,0.003508093534037471
1702338822188430300,148.07043041992188,0.09399397671222687,-0.0015128953382372856,0.008795132860541344
1702338822289138200,148.17113818359374,0.08206846565008163,0.000037673813494620845,0.0058130440302193165
1702338822389846300,148.27184619140624,0.08857095241546631,0.004173432942479849,0.0008268205565400422
1702338822490584800,148.37258471679687,0.08449959754943848,-0.0015620589256286621,-0.008913874626159668
1702338822591293000,148.47329296875,0.09379829466342926,-0.000775504217017442,-0.003375743515789509
1702338822691970300,148.57397021484374,0.0995040312409401,-0.0018438230035826564,0.005389434285461903
1702338822792678400,148.67467846679688,0.0995040312409401,-0.0004447157552931458,0.005228872876614332
1702338822893386200,148.77538623046874,0.09594378620386124,0.0023100075777620077,-0.0006904820329509676
1702338822994094300,148.87609423828124,0.0772891566157341,0.004192696884274483,-0.000057262557675130665
1702338823094802400,148.97680249023438,0.09952797740697861,-0.00425812928006053,-0.01089757401496172
1702338823195510300,149.07751025390624,0.08440905809402466,-0.001411466277204454,-0.0006287563592195511
1702338823296248800,149.17824877929687,0.09778845310211182,0.0024707335978746414,0.0034270004834979773
1702338823396957000,149.27895703125,0.07026504725217819,0.0071825264021754265,0.0010388216469436884
1702338823497665000,149.3796650390625,0.08823098987340927,0.0011103906435891986,0.0026287657674402
1702338823598372900,149.48037280273437,0.0839388370513916,-0.0066399225033819675,-0.0016476446762681007
1702338823699111400,149.581111328125,0.08392598479986191,-0.005330358631908894,-0.0007162017864175141
1702338823799850000,149.68185009765625,0.08343531936407089,-0.00007682049181312323,0.001472699106670916
1702338823900497000,149.78249682617187,0.10138725489377975,0.0014644220937043428,0.005307756830006838
1702338824001205000,149.883205078125,0.0930529460310936,0.000089617635239847,0.004252369981259108
1702338824101912800,149.98391284179687,0.09641225636005402,-0.004405987914651632,0.0005479006213136017
1702338824202651400,150.0846513671875,0.0966494083404541,0.007005871739238501,-0.0034546826500445604
1702338824303359500,150.185359375,0.10955274105072021,0.0058878096751868725,-0.0022621264215558767
1702338824404098000,150.28609814453125,0.09732115268707275,-0.005459372885525227,-0.002390214242041111
1702338824504775400,150.386775390625,0.08341604471206665,-0.0027885364834219217,0.00045323578524403274
1702338824605514000,150.48751391601562,0.09250620752573013,0.0029237535782158375,0.0034370857756584883
1702338824706222000,150.58822216796875,0.08965041488409042,0.0005594120011664927,0.003510448383167386
1702338824806899500,150.6888994140625,0.09394841641187668,-0.003579475684091449,-0.009619461372494698
1702338824907631600,150.78963159179688,0.09870553016662598,-0.0009654294699430466,-0.0022502157371491194
1702338825008309200,150.8903093261719,0.09509680420160294,0.002539015607908368,0.0061402819119393826
1702338825109017000,150.99101708984375,0.09078829735517502,-0.0006464638281613588,0.004297822248190641
1702338825209755600,151.09175561523438,0.09560032188892365,0.0019218471134081483,-0.0022546150721609592
1702338828331612400,154.2136123046875,0.0901883989572525,0.0009971741819754243,-0.006012613885104656
1702338828432320500,154.31432055664064,0.1059819832444191,-0.0013812058605253696,-0.0003817625402007252
1702338828533028400,154.4150283203125,0.0966266319155693,0.004312646575272083,0.002744778525084257
1702338828633736400,154.515736328125,0.086810402572155,0.003533921902999282,-0.004287408199161291
1702338828734444500,154.61644458007814,0.09039284288883209,-0.0018193296855315566,0.0011613237438723445
1702338828835152400,154.71715234375,0.08894888311624527,-0.0041410550475120544,-0.0039193821139633656
1702338828935860500,154.81786059570314,0.09515054523944855,0.004868169315159321,0.009168844670057297
1702338829036599000,154.91859912109376,0.08536585420370102,-0.0007359262672252953,0.0027342368848621845
1702338829137276400,155.0192763671875,0.10116995871067047,-0.0011371953878551722,0.006767523009330034
1702338829238015000,155.12001489257813,0.09547064453363419,-0.0064443545415997505,0.005148975178599358
1702338829338753500,155.22075341796875,0.09642276912927628,-0.004134717863053083,-0.008121023885905743
1702338829439431000,155.32143090820313,0.08826954662799835,0.0098856370896101,-0.00346558028832078
1702338829540139000,155.42213891601563,0.09566398710012436,0.002609537448734045,0.003679479705169797
1702338829640847000,155.52284716796876,0.10235106199979782,-0.003566421801224351,0.00723316241055727
1702338829741524500,155.6235244140625,0.09041912853717804,-0.002759557217359543,0.005217655561864376
1702338829842232600,155.72423266601564,0.09044249355792999,-0.000493624887894839,0.002663868013769388
1702338829942971100,155.82497119140626,0.09138994663953781,0.004352201707661152,-0.006297019310295582
1702338830043679000,155.92567895507813,0.09950052946805954,0.0020158581901341677,-0.0011023909319192171
1702338832057839000,157.93983911132813,0.08990217745304108,0.004236226435750723,0.005283798556774855
1702338836086159600,161.96815966796876,0.08938814699649811,-0.00430782325565815,0.0027937262784689665
1702338836186837000,162.0688369140625,0.09011713415384293,0.0010608644224703312,0.0021218815818428993
1702338836287545000,162.16954516601564,0.07457881420850754,0.005403843242675066,0.001240363228134811
1702338836388253000,162.2702529296875,0.0654752179980278,0.007359151262789965,-0.006457753945142031
1702338836488961000,162.3709609375,0.08126179128885269,-0.0013886397937312722,0.0032948513980954885
1702338836589699600,162.47169946289063,0.09514645487070084,-0.0008651537937112153,0.003763119224458933
1702338836690377000,162.572376953125,0.09755247086286545,-0.0023164981976151466,-0.00033759718644432724
1702338836791085000,162.6730849609375,0.09299921244382858,-0.005748785566538572,-0.0006005175528116524
1702338836891793200,162.77379321289064,0.0894138440489769,-0.005974113009870052,0.007844303734600544
1702338836992531500,162.87453149414063,0.0910879522562027,0.0007905123638920486,-0.0009869439527392387
1702338837093209000,162.975208984375,0.08582323044538498,-0.0031299677211791277,-0.003969151061028242
1702338837193917200,163.07591723632814,0.10494983196258545,0.0022457013837993145,-0.001912691630423069
1702338837294716700,163.17671655273438,0.08674614876508713,0.005933802574872971,0.0048494101502001286
1702338837395333000,163.2773330078125,0.09681296348571777,0.0047616418451070786,0.0007492687436752021
1702338837496041200,163.37804125976564,0.0920342355966568,0.0012386724120005965,0.0019031357951462269
1702338837596749000,163.4787490234375,0.10447727888822556,-0.002147530671209097,0.00018184557848144323
1702338844747031300,170.62903125,0.06738530844449997,0.01295517385005951,0.002581533743068576
1702338844847739400,170.72973950195313,0.08607498556375504,-0.001327448058873415,-0.0005848374566994607
1702338844948447200,170.830447265625,0.08920355886220932,-0.0167749784886837,0.0018018903210759163
1702338845049155300,170.9311552734375,0.09084787219762802,-0.011239980347454548,0.001178518868982792
1702338845149863400,171.03186352539063,0.09083385765552521,-0.004318973049521446,0.0011437817011028528
1702338845250571300,171.1325712890625,0.0764748826622963,0.0007880537887103856,-0.003715887200087309
1702338845351309800,171.23330981445312,0.08243938535451889,0.004472312517464161,-0.0010859441244974732
1702338845452018000,171.33401782226562,0.10086679458618164,0.006127743981778622,0.007314985617995262
1702338845552725800,171.43472583007812,0.10974842309951782,-0.006860772147774696,0.005652628373354673
1702338845653433900,171.53543383789062,0.10667534172534943,-0.008076289668679237,0.0012458667624741793
1702338845754142000,171.63614184570312,0.10643292963504791,0.0010150755988433957,0.0010161137906834483
1702338846156943400,172.038943359375,0.11467727273702621,0.0045705451630055904,-0.0016168411821126938
1702338846257651500,172.1396513671875,0.12137953191995621,-0.00020633777603507042,-0.0024686423130333424
1702338846358359600,172.24035961914063,0.11872877180576324,0.00331776007078588,-0.002235767897218466
1702338846459097900,172.34109790039062,0.11200898885726929,-0.004211666062474251,0.002555503509938717
1702338846559775500,172.441775390625,0.10338496416807175,-0.0025684169959276915,0.0014109369367361069
1702338846660483300,172.5424833984375,0.12133923172950745,-0.0039017759263515472,0.008622934110462666
1702338846761191400,172.64319140625,0.11178585141897202,0.008193591609597206,-0.009948132559657097
1702338846861899500,172.7438994140625,0.10481315106153488,0.0019596293568611145,-0.005966513883322477
1702338846962638000,172.84463818359376,0.11580288410186768,-0.0008183027966879308,0.0058611431159079075
1702338847063407000,172.94540698242187,0.11698340624570847,-0.0015930290101096034,0.004474328365176916
1702338847164084500,173.04608447265625,0.1201184093952179,-0.0014829293359071016,0.00024045893223956227
1702338847264792600,173.14679248046875,0.10121902078390121,0.00025087277754209936,-0.0019210610771551728
1702338847365470000,173.24746997070312,0.09235258400440216,0.006187085062265396,0.0018548723310232162
1702338847466239000,173.34823901367187,0.10360225290060043,0.0004388745001051575,0.010665000416338444
1702338847566916600,173.44891650390625,0.10339080542325974,-0.0019109895220026374,-0.00010719615966081619
1702338847667655200,173.5496552734375,0.10530906915664673,-0.006128505803644657,-0.0056273373775184155
1702338847768332500,173.65033251953125,0.09428662061691284,-0.002794205443933606,-0.004073426593095064
1702338847869071000,173.75107104492187,0.11841392517089844,-0.0031421880703419447,0.00023589545162394643
1702338847969779200,173.851779296875,0.09733984619379044,0.0018149304669350386,0.0024968537036329508
1702338848070456600,173.95245654296875,0.09662721306085587,0.00047714271931909025,-0.009365585632622242
1702338848171195100,174.05319506835937,0.09660034626722336,0.0004361934552434832,-0.006756443064659834
1702338848271872500,174.15387255859375,0.08462051302194595,0.001493548508733511,0.0016447240486741066
1702338848372580600,174.25458056640625,0.08530686050653458,0.0015286849811673164,-0.002520638518035412
1702338848473288700,174.35528881835938,0.09655828773975372,-0.0009735809871926904,0.0028388684149831533
1702338848574027300,174.45602734375,0.09512016922235489,-0.003117288462817669,0.0018511759117245674
1702338848674735000,174.55673510742187,0.08246567100286484,0.0017505763098597527,0.006902903318405151
1702338848775412700,174.65741284179688,0.08869770914316177,0.004439768381416798,0.0018032046500593424
1702338848876120600,174.75812060546875,0.09637662023305893,-0.002040080027654767,0.0010162871330976486
1702338848976828700,174.85882861328125,0.08751777559518814,-0.0009831859497353435,-0.0029829922132194042
1702338849077567200,174.95956713867187,0.09060896933078766,-0.005334361921995878,-0.0014558781404048204
1702338849178244600,175.06024462890625,0.1018364429473877,-0.003630619728937745,0.0011178975692018867
1702338849278952700,175.16095263671875,0.09441454708576202,0.0029184052255004644,0.001743788132444024
1702338849379691300,175.26169116210937,0.0783674493432045,0.00335494102910161,-0.007263975217938423
1702338849480399000,175.36239916992187,0.08217419683933258,0.004083810839802027,-0.0021733210887759924
1702338849581076700,175.46307666015625,0.09244545549154282,0.0067704520188272,0.005346565041691065
1702338849681784800,175.56378491210938,0.09700280427932739,-0.002523844363167882,0.0024034210946410894
1702338849782492700,175.66449267578125,0.08984551578760147,0.0020446607377380133,-0.0007098950445652008
1702338855220664000,181.1026640625,0.0807565227150917,0.005439204629510641,-0.001382990158163011
1702338855321341700,181.203341796875,0.08601482212543488,0.007320574950426817,0.00279689347371459
1702338855422080300,181.30408032226563,0.09391570091247559,-0.0029536171350628138,0.0043238066136837006
1702338855522757600,181.40475756835937,0.08842258900403976,-0.006555445957928896,0.0028922792989760637
1702338855623526700,181.50552661132812,0.08916442841291428,0.00039484832086600363,0.00020993837097194046
1702338855724204000,181.6062041015625,0.09227197617292404,0.00047909701243042946,-0.002146058948710561
1702338855824912100,181.706912109375,0.07837679237127304,0.00894188228994608,0.0008262546616606414
1702338855925620200,181.8076201171875,0.0924939438700676,0.005019338335841894,0.0022306384053081274
1702338856026328000,181.908328125,0.10829219967126846,-0.009462296031415462,-0.0005545815802179277
1702338856127066600,182.00906665039062,0.10469748824834824,-0.006853848230093718,-0.0016454177675768733
1702338856227744300,182.109744140625,0.0886463075876236,-0.0018460340797901154,0.006299428641796112
1702338856328452000,182.2104521484375,0.09225970506668091,0.0053342790342867374,0.009815462864935398
1702338856429160200,182.31116015625,0.08559834212064743,0.012845402583479881,-0.0026948084123432636
1702338856529868300,182.41186840820313,0.09350389242172241,0.0014884568518027663,0.007285816129297018
1702338856630606800,182.51260693359376,0.0920938178896904,-0.005286091938614845,0.003644815646111965
1702338856731284200,182.6132841796875,0.09926804155111313,-0.007842956110835075,0.0008572133374400437
1702338856831992300,182.71399243164063,0.09618093818426132,-0.0032736780121922493,-0.0077637494541704655
1702338861061728500,186.943728515625,0.09752851724624634,-0.00436019990593195,0.005758099723607302
1702338861162436600,187.0444365234375,0.09658048301935196,0.0016802758909761906,0.005505009088665247
1702338861263144700,187.14514477539063,0.09419900178909302,-0.0007029094849713147,-0.0026757512241601944
1702338861363852500,187.2458525390625,0.09516748040914536,0.004268078599125147,0.003051380394026637
1702338861464591000,187.34659106445312,0.0985121876001358,0.0010474043665453792,0.0029982798732817173
1702338861565299200,187.44729931640626,0.08632966130971909,-0.001956471474841237,0.0011299543548375368
1702338861665976600,187.5479765625,0.09088116884231567,0.0032133315689861774,-0.0015423104632645845
1702338861766715100,187.64871508789062,0.07816942781209946,0.005919001065194607,-0.004914302844554186
1702338861867392500,187.749392578125,0.09776158630847931,-0.013017721474170685,-0.005707006901502609
1702338861968100600,187.8501005859375,0.09676331281661987,0.0009689764119684696,-0.0023184672463685274
1702338862068808700,187.95080859375,0.10224825143814087,-0.002614228753373027,0.0026932568289339542
1702338862169516500,188.0515166015625,0.104178786277771,0.0009090014500543475,0.012718292884528637
1702338862270214400,188.15221435546874,0.09895028173923492,-0.0029357043094933033,-0.001934130908921361
1702338862370952700,188.25295263671876,0.07454901933670044,0.0069712018594145775,0.005939296912401915
1702338862471630300,188.35363037109374,0.0984923243522644,0.007873340509831905,-0.005225988570600748
1702338862572338400,188.45433837890624,0.08531387150287628,0.0028303288854658604,-0.004915744997560978
1702338956240882700,282.1228825683594,-6.051788330078125,1.727833867073059,1.0379738807678223
1702338956341560300,282.22356030273437,-0.18954172730445862,-1.3967726230621338,-1.3173969984054565
1702338956442176800,282.3241767578125,0.5269116163253784,-1.7046371698379517,-1.781137228012085
1702338956543006700,282.4250068359375,-1.4234709739685059,-0.27671894431114197,-3.7168939113616943
1702338956643684400,282.52568432617187,1.8053672313690186,-0.03682035207748413,-0.25664782524108887
1702338956744392400,282.62639233398437,0.7800225615501404,-0.7311171889305115,1.002666711807251
1702338956845100300,282.72710034179687,3.450615167617798,-0.6505648493766785,0.5492739677429199
1702338956945838800,282.8278388671875,0.24077187478542328,-0.6083114147186279,-0.23260316252708435
1702338957046547000,282.928546875,0.6727776527404785,0.23822669684886932,-1.7892667055130005
1702338957147224300,283.02922436523437,0.19594432413578033,1.3432424068450928,-2.4248147010803223
1702338957247932400,283.12993237304687,0.32361313700675964,0.5216380953788757,-0.595818042755127
1702338957348640300,283.23064013671876,1.4298107624053955,-0.3855203688144684,-1.1009390354156494
1702338957449348400,283.33134838867187,0.4438331723213196,-0.42359060049057007,-0.034780003130435944
1702338957550056400,283.43205639648437,-0.4614761173725128,0.08500369638204575,0.1155756264925003
1702338957650764300,283.53276440429687,0.6576225161552429,-0.04390301927924156,-0.052213720977306366
1702338957751472400,283.63347241210937,-0.0003831863577943295,0.1668861210346222,-0.4970245659351349
1702338957852180500,283.73418041992187,0.5139849185943604,0.2468085139989853,-0.18770833313465118
1702338957952888300,283.83488842773437,-0.8919824361801147,0.4989420771598816,0.12876076996326447
1702338958053596400,283.93559643554687,-1.3764100074768066,0.1244397684931755,0.5946792364120483
1702338958154304500,284.03630444335937,1.894802212715149,0.7217802405357361,-1.0499705076217651
1702338958255012400,284.13701245117187,0.5188243985176086,-0.24464870989322662,-0.8215110898017883
1702338958355751000,284.2377509765625,0.31073901057243347,0.2917926013469696,-0.9751126766204834
1702338958456459000,284.338458984375,-0.7853369116783142,0.4746779203414917,0.16345664858818054
1702338958557167000,284.4391669921875,0.08172734081745148,0.503451943397522,0.42320528626441956
