time,seconds_elapsed,z,y,x
1702338674349034200,0.2310341796875,0.0038391994312405586,0.0024821078404784203,-0.0014177769189700484
1702338674449803300,0.33180322265625,-0.6072463393211365,0.4870730936527252,0.24649500846862793
1702338674550480600,0.432480712890625,0.702480673789978,1.5864791870117188,0.5357398986816406
1702338674651219200,0.53321923828125,0.12128404527902603,1.612309455871582,0.8026224970817566
1702338674751927300,0.63392724609375,-0.7058100700378418,1.359961986541748,1.0976587533950806
1702338674852635400,0.734635498046875,-0.8622713088989258,0.7296329736709595,0.9108765125274658
1702338674953312800,0.835312744140625,0.7058815360069275,1.064765214920044,-0.37108370661735535
1702338675054051300,0.93605126953125,0.04451395943760872,1.3614819049835205,0.6248775720596313
1702338675154728700,1.036728759765625,1.7659162282943726,3.0924723148345947,0.6087321043014526
1702338675255436800,1.137436767578125,-2.1945414543151855,-1.971336007118225,2.810917615890503
1702338675356175400,1.23817529296875,-1.1870185136795044,-1.926721215248108,1.1564275026321411
1702338675456883200,1.33888330078125,0.8968474268913269,1.3911731243133545,-0.3415490388870239
1702338675557591300,1.43959130859375,1.4202516078948975,1.9043959379196167,-1.797163486480713
1702338675658299400,1.54029931640625,2.1350677013397217,1.9674040079116821,-3.170649766921997
1702338675759007200,1.64100732421875,-1.138924479484558,-1.367817759513855,-1.6237149238586426
1702338675859684900,1.741684814453125,-1.809859037399292,-0.9154389500617981,0.16858001053333282
1702338675960423400,1.84242333984375,0.6493636965751648,0.6178844571113586,-0.7148116230964661
1702338676061131300,1.94313134765625,1.1362918615341187,1.288398027420044,-0.889758288860321
1702338676866764800,2.748764892578125,4.66756010055542,-0.5796677470207214,-0.443800151348114
1702338676967473000,2.849472900390625,1.052767038345337,-0.43749529123306274,-0.03788179159164429
1702338677068211500,2.95021142578125,0.32986825704574585,-0.2345426231622696,0.0040511260740458965
1702338677168888800,3.050888916015625,0.26742056012153625,-0.11557028442621231,0.002182378200814128
1702338677269627400,3.15162744140625,0.00672367587685585,-0.0073613510467112064,0.00021188294340390712
1702338677370305000,3.252304931640625,0.000007941468538774643,-0.000008694638381712139,2.5025920535881596e-7
1702338677470982400,3.352982421875,0.0023155331145972013,0.004643001593649387,0.0005758040933869779
1702338677571751400,3.45375146484375,0.0003690242883749306,-0.0029044277034699917,0.00444753747433424
1702338677672429000,3.554428955078125,0.000005076527486380655,0.002323962515220046,0.0002637678408063948
1702338677773137000,3.655136962890625,-0.000750985462218523,-0.0006693616742268205,0.00015991627878975123
1702338677873875500,3.75587548828125,-0.0012534975539892912,0.00043853939860127866,-0.0011723303468897939
1702338677974553000,3.856552978515625,-0.004248122684657574,0.0014873475302010775,0.001911116298288107
1702338678075261000,3.957260986328125,-0.0004086744738742709,0.004385440144687891,0.0038203971926122904
1702338678175969000,4.057968994140625,0.0014817774062976241,-0.0017229500226676464,0.002072844421491027
1702338678276707600,4.15870751953125,-0.0022907136008143425,0.0009897809941321611,0.004581239074468613
1702338678377385000,4.259385009765625,0.0004692846559919417,0.0008553886436857283,0.00042967498302459717
1702338678478123500,4.36012353515625,0.0039249504916369915,-0.004162459168583155,-0.004988381639122963
1702338678578801200,4.46080126953125,-0.002268455922603607,-0.004247110337018967,-0.002044586930423975
1702338678679509000,4.561509033203125,0.004136508330702782,-0.004651361610740423,0.0018666558898985386
1702338678780217000,4.662217041015625,0.0028067303355783224,0.0008676600409671664,0.0015870993956923485
1702338678881352200,4.763352294921875,-0.0016333928797394037,-0.001782470615580678,-0.002337879501283169
1702338678981694200,4.863694091796875,-0.00023151695495471358,-0.00027221799246035516,0.0016550255240872502
1702338679082432800,4.964432861328125,-0.0006004166789352894,0.0014316957676783204,-0.0009232991724275053
1702338679183110100,5.065110107421875,-0.0024547234643250704,0.004069058690220118,-0.0015267124399542809
1702338679283818200,5.165818359375,0.003276640083640814,-0.0028909018728882074,-0.0031081372871994972
1702338679384526000,5.266526123046875,0.003253926057368517,0.0022666454315185547,0.0016229677712544799
1702338679485356300,5.367356201171875,0.0004695940006058663,-0.0007756110862828791,0.0022390091326087713
1702338679585942300,5.4679423828125,-0.004535306245088577,0.0010096222395077348,-0.0022833377588540316
1702338679686650000,5.568650146484375,0.003635208588093519,-0.00010537087655393407,-0.0005964264273643494
1702338679787358200,5.669358154296875,-0.0031086921226233244,0.0017430108273401856,0.0047078318893909454
1702338679888066300,5.77006640625,-0.0005181402084417641,0.004241251852363348,0.001491666422225535
1702338679988774100,5.870774169921875,0.0015865963650867343,0.0004591077449731529,0.002186001045629382
1702338680089482200,5.971482177734375,0.004735331051051617,0.0012414228403940797,-0.0007747664931230247
1702338680190220800,6.072220703125,0.003446586662903428,0.0002745634410530329,0.0032804429065436125
1702338680290898200,6.172898193359375,-0.002552435966208577,-0.004045960493385792,0.003083755262196064
1702338680391636700,6.27363671875,0.0017327838577330112,0.0007081216317601502,0.0021188848186284304
1702338681197209300,7.079209228515625,-0.000625173153821379,-0.0007714906241744757,0.004759363364428282
1702338681297917200,7.179917236328125,0.0007878184551373124,0.0019407260697335005,0.0036616588477045298
1702338682103581400,7.98558154296875,0.0036369520239531994,-0.0013814994599670172,0.003746734233573079
1702338682204289300,8.086289306640625,0.0031519997864961624,0.003385949181392789,-0.002173905959352851
1702338682304997400,8.186997314453125,0.0016011511906981468,0.0010070562129840255,-0.002864639274775982
1702338682405705500,8.28770556640625,0.00010911166464211419,0.003501276485621929,-0.00223294529132545
1702338682506443800,8.38844384765625,-0.002045657020062208,0.002098318887874484,-0.003982057794928551
1702338682607151900,8.48915185546875,-0.004909747280180454,0.0002735614834818989,-0.003805591957643628
1702338683513498400,9.395498291015626,0.004948060028254986,0.0011314237490296364,0.002288975054398179
1702338683614206500,9.49620654296875,0.0007180243846960366,-0.0005850153975188732,0.004004462156444788
1702338683714945000,9.596945068359375,-0.003388756886124611,-0.003926443867385387,-0.0026847159024327993
1702338683815744500,9.69774462890625,-0.0004938876372762024,-0.0036489921621978283,-0.00479218689724803
1702338683916330500,9.79833056640625,0.0009337222436442971,-0.0026815079618245363,-0.0029950214084237814
1702338684017038300,9.899038330078126,0.001071746926754713,-0.0022197372745722532,0.002532116137444973
1702338684117746400,9.999746337890626,-0.0023835659958422184,-0.003961434122174978,0.0003622472286224365
1702338684218454500,10.10045458984375,0.0033190972171723843,-0.003776111640036106,-0.004272829741239548
1702338684319162400,10.201162353515626,-0.0020815322641283274,-0.004331214819103479,0.0007537787896580994
1702338684419870500,10.301870361328126,-0.004611289594322443,-0.0030267576221376657,-0.002371465787291527
1702338684520578600,10.40257861328125,0.0024483639281243086,-0.003997587598860264,0.002803670708090067
1702338684621286400,10.503286376953126,-0.0030652075074613094,0.0029891019221395254,-0.004596693906933069
1702338684721994500,10.603994384765626,0.0040236241184175014,0.0029720538295805454,0.003946530167013407
1702338685124857000,11.006857177734375,-0.0038922110106796026,0.00003285825368948281,-0.0033353352919220924
1702338685225534500,11.107534423828126,-0.00013364999904297292,0.0004062450025230646,-0.00027303339447826147
1702338685326242600,11.20824267578125,0.002435133559629321,-0.0035743522457778454,-0.0024593144189566374
1702338685427011600,11.309011474609376,-0.004673270508646965,0.0025299936532974243,-0.0016444132197648287
1702338685527719700,11.4097197265625,-0.004824341740459204,0.0009356588125228882,-0.0013152632163837552
1702338685629404200,11.511404052734376,-0.0007938194321468472,-0.0028860142920166254,-0.0020217704586684704
1702338685729135600,11.611135498046876,0.00285451952368021,-0.004571008495986462,-0.002474251203238964
1702338685829843700,11.71184375,-0.0005173799581825733,-0.00300906365737319,-0.0008966669556684792
1702338685930582300,11.812582275390625,0.0010205066064372659,0.004649810958653688,-0.003305615158751607
1702338686031259600,11.913259765625,0.0017896342324092984,0.0037857466377317905,0.000610382528975606
1702338686131967700,12.0139677734375,-0.0020317337475717068,0.0016630685422569513,-0.0034397118724882603
1702338686232919800,12.114919921875,-0.003633245825767517,-0.0006940737366676331,-0.0024263157974928617
1702338686333383700,12.2153837890625,-0.0007611850160174072,-0.002089262008666992,-0.0026295725256204605
1702338686434091800,12.316091796875,0.0005116057582199574,0.0030434532091021538,0.0017851931042969227
1702338686534799600,12.416799560546876,0.0024032313376665115,-0.0011797476327046752,0.00006461083830799907
1702338686635507700,12.5175078125,0.0026099008973687887,-0.0047997222281992435,0.004926460795104504
1702338686736215800,12.6182158203125,0.0023665206972509623,0.004696450661867857,-0.004124946426600218
1702338686836923600,12.718923583984376,-0.004626675974577665,-0.0034108394756913185,0.004885678179562092
1702338686937631700,12.8196318359375,0.0004139792872592807,0.0020293844863772392,0.0010037505999207497
1702338687038339800,12.92033984375,-0.0015183249488472939,-0.0006318807718344033,0.00010771214874694124
1702338687139047700,13.021047607421876,0.0023675053380429745,0.0005411606980487704,-0.004083599895238876
1702338687239755800,13.121755859375,-0.0017419618088752031,0.003910386469215155,0.003018456744030118
1702338687340494300,13.222494384765625,0.0007766109774820507,-0.004658681806176901,0.0033128655049949884
1702338687441202200,13.3232021484375,0.0025973462034016848,0.001595835667103529,0.0029624742455780506
1702338687541879800,13.4238798828125,0.004399640951305628,-0.0013698824914172292,-0.003792781848460436
1702338687642587600,13.524587646484376,-0.003786287037655711,-0.002765713958069682,-0.00408470444381237
1702338687743295700,13.625295654296876,0.0003468430077191442,0.003496516263112426,0.004125324077904224
1702338687844003800,13.72600390625,-0.004490690305829048,0.0008905035210773349,0.0010586249409243464
1702338687944742400,13.826742431640625,0.003464796580374241,0.0013572013704106212,0.001269734464585781
1702338688045389300,13.927389404296875,0.004709743428975344,-0.0019658859819173813,0.0008777117473073304
1702338688146128000,14.0281279296875,-0.003478011814877391,-0.00027808576123788953,0.0007138806395232677
1702338688246835700,14.128835693359376,-0.0004212957574054599,0.0014644318725913763,-0.000910454080440104
1702338688347543800,14.229543701171876,-0.0015181570779532194,0.0036083459854125977,0.0034118539188057184
1702338688448221400,14.330221435546875,-0.0012057408457621932,-0.0019929399713873863,0.00035213708179071546
1702338688548990500,14.430990478515625,0.0043778489343822,-0.0015200766501948237,0.0034687179140746593
1702338688649881600,14.531881591796875,0.0034591234289109707,-0.00400543911382556,0.0012853682273998857
1702338688750376000,14.6323759765625,0.001776728080585599,-0.004897935315966606,0.0026049823500216007
1702338688851083800,14.733083740234376,-0.0014089078176766634,-0.0033055334351956844,-0.0030151293613016605
1702338688951791900,14.8337919921875,0.004737949930131435,-0.0048446329310536385,0.0035225118044763803
1702338689183431400,15.065431396484374,-0.0007417374872602522,-0.0017642214661464095,-0.0026502821128815413
1702338689284139500,15.166139404296874,-0.0007685500313527882,0.0004696244141086936,-0.002500042086467147
1702338689384817000,15.26681689453125,0.0011918204836547375,-0.0010434589348733425,0.003853016532957554
1702338689485525000,15.36752490234375,0.0007987570716068149,-0.004201263654977083,-0.004971809219568968
1702338689586263300,15.46826318359375,0.0016876113368198276,-0.0036785711999982595,-0.0048110391944646835
1702338689687001900,15.569001953125,0.004429969005286694,0.004643873777240515,0.003106309100985527
1702338689787679500,15.669679443359374,-0.002991089830175042,0.0015482795424759388,-0.000642797036562115
1702338689888387300,15.77038720703125,-0.000005211531970417127,-0.004081539809703827,-0.0039527686312794685
1702338689989095400,15.871095458984374,0.003702910616993904,0.001715185004286468,0.0011444080155342817
1702338690089803500,15.971803466796874,-0.0017939246026799083,-0.0011611896334215999,0.004587823525071144
1702338690190511400,16.072511474609374,-0.002012550598010421,0.00406865356490016,0.004250877071171999
1702338690291219500,16.173219482421874,-0.0029142010025680065,-0.0021029794588685036,0.0005037784576416016
1702338690391927600,16.273927490234374,0.0009090972016565502,-0.00279461988247931,-0.0038122846744954586
1702338690492666000,16.374666015625,0.0014804929960519075,0.0037660598754882812,0.0027539057191461325
1702338690593343500,16.475343505859374,0.004218540620058775,0.004666243214160204,-0.00201436341740191
1702338690694051600,16.576051513671874,-0.004615128505975008,0.004431550391018391,-0.004385356791317463
1702338690794790100,16.6767900390625,0.0020698870066553354,-0.0019653192721307278,0.0035828561522066593
1702338690895498000,16.777498046875,0.0022275960072875023,-0.001649391371756792,0.0019191306782886386
1702338690996175600,16.878175537109374,0.004505810793489218,-0.004324656445533037,-0.0009325334685854614
1702338691096883500,16.978883544921874,-0.002751093590632081,-0.0028933053836226463,0.0029545093420892954
1702338691539968300,17.42196826171875,0.00036972464295104146,-0.004340486600995064,-0.0010048338444903493
1702338691640706800,17.522706787109374,0.0023619646672159433,-0.004190666135400534,-0.00364243914373219
1702338691741415000,17.623414794921874,0.004127835854887962,-0.0013251409400254488,0.0009614193695597351
1702338691842122800,17.724122802734374,0.004522603936493397,-0.0011434501502662897,0.002425656421110034
1702338691942830800,17.824830810546874,0.002326409798115492,-0.003978324122726917,-0.0030677628237754107
1702338692043508200,17.92550830078125,0.0014299541944637895,-0.002142043085768819,-0.0033215004950761795
1702338692144277200,18.02627734375,0.0039596278220415115,0.0017178833950310946,0.00012350500037427992
1702338692244955000,18.126954833984374,-0.0018641233909875154,0.0021494918037205935,0.0009556907461956143
1702338692345662700,18.227662841796874,0.0037443023175001144,-0.004766552243381739,-0.0007827633526176214
1702338692446370800,18.328370849609374,-0.004241680260747671,0.003053505439311266,-0.004271652549505234
1702338692547079000,18.429078857421874,-0.0010719683486968279,0.0041790916584432125,-0.0005750000709667802
1702338692647817500,18.5298173828125,0.0005756795289926231,-0.002055259421467781,0.003995109815150499
1702338692748525300,18.630525390625,0.0036629759706556797,-0.004011027980595827,0.0003494018455967307
1702338692849233400,18.7312333984375,0.0013990968000143766,0.0045019034296274185,0.0002689916000235826
1702338692949910800,18.831910888671874,-0.0005409565637819469,0.0019773668609559536,0.00306440657004714
1702338693050649300,18.9326494140625,-0.0005192956305108964,0.0015555816935375333,0.004522001836448908
1702338693151357400,19.033357421875,-0.0007803234620951116,-0.0017828670097514987,-0.004756930284202099
1702338693252034800,19.134034912109374,-0.0018894150853157043,-0.004686289932578802,0.0023856002371758223
1702338693352743000,19.234742919921874,-0.004326064605265856,-0.0042856852523982525,-0.0018633193103596568
1702338693453439700,19.335439697265624,0.0031643433030694723,0.00027352155302651227,-0.0024988031946122646
1702338693554147800,19.43614794921875,-0.002027966780588031,0.001219530706293881,-0.0019357126438990235
1702338693654886400,19.536886474609375,-0.003801343496888876,0.0030771309975534678,0.0032537770457565784
1702338693755563800,19.637563720703124,0.004675440955907106,0.0019399779848754406,-0.003763088956475258
1702338695266123000,21.148123046875,0.003101495560258627,0.0039469473995268345,0.0016337746055796742
1702338695366830800,21.248830810546874,-0.00009423345181858167,-0.00445505790412426,0.002821891801431775
1702338695467508500,21.349508544921875,-0.0031499434262514114,-0.0008885905263014138,-0.0013043213402852416
1702338695568247000,21.4502470703125,-0.0015137502923607826,-0.00025339247076772153,0.0032974195200949907
1702338695668955000,21.550954833984374,0.002897912170737982,-0.004035696387290955,-0.0049852714873850346
1702338695769693400,21.651693359375,-0.0033242402132600546,-0.0037029131781309843,0.004501383751630783
1702338695870371000,21.75237109375,-0.0026936628855764866,-0.0012148639652878046,0.001215611700899899
1702338695971079000,21.853078857421874,0.004373755306005478,-0.0042055402882397175,0.004351594019681215
1702338696071787000,21.953787109375,-0.004568271804600954,0.0018824023427441716,0.0034629874862730503
1702338696172495000,22.0544951171875,0.0016717243706807494,-0.0029704859480261803,0.004253009334206581
1702338696273233400,22.1552333984375,-0.0009822893189266324,-0.00022209972667042166,-0.003899447387084365
1702338696373941500,22.25594140625,0.0024132924154400826,-0.0015791591722518206,0.0011352247092872858
1702338696474619100,22.356619140625,0.003930406644940376,-0.0013624343555420637,0.0037531566340476274
1702338696575327000,22.457326904296874,0.0033776324708014727,-0.004495175555348396,0.0005785149405710399
1702338696676035000,22.55803515625,-0.6999083161354065,-0.00458771176636219,-0.007879814133048058
1702338696776773600,22.658773681640625,-1.9594597816467285,0.024620475247502327,0.006189008243381977
1702338696877451000,22.759450927734374,-3.6983695030212402,-0.018634794279932976,-0.009353844448924065
1702338696978159000,22.8601591796875,-13.764459609985352,-0.22640374302864075,-0.17573997378349304
1702338700301492700,26.18349267578125,0.0012390160700306296,-0.003985390067100525,0.0015731186140328646
1702338700402231300,26.284231201171874,0.0014993638033047318,0.0009830230847001076,-0.0029501980170607567
1702338700502939400,26.384939453125,0.0020878815557807684,0.00106776540633291,0.004013612400740385
1702338700603647200,26.485647216796874,-0.0006066677160561085,0.0024049507919698954,-0.004579718690365553
1702338700704324900,26.586324951171875,0.0028625261038541794,0.002373327035456896,0.0008121311548165977
1702338700805094000,26.687093994140625,0.003880059812217951,-0.00201562256552279,0.000866731395944953
1702338700905771300,26.787771240234374,-0.001676604151725769,0.0024606562219560146,0.0024346387945115566
1702338701006509800,26.888509765625,0.0033242166973650455,0.001608487917110324,0.003094023559242487
1702338701107187500,26.9891875,-0.0009100049501284957,-0.0032570469193160534,-0.002534715458750725
1702338701207895300,27.089895263671874,-0.004876348655670881,-0.0037675804924219847,0.0009876787662506104
1702338701308603400,27.190603271484374,-0.004259435925632715,-0.0006093567353673279,-0.003135021310299635
1702338701409342000,27.291342041015625,0.0019403136102482677,0.00007482647924916819,0.002896771999076009
1702338701510019300,27.392019287109374,-0.00023039102961774915,-0.0011754519073292613,0.000802735099568963
1702338701610727400,27.4927275390625,-0.0012523961486294866,0.0034544288646429777,-0.004697158467024565
1702338701711435500,27.593435546875,0.0023113798815757036,0.00006364702858263627,-0.0009904482867568731
1702338701812143400,27.694143310546874,0.0029372847639024258,-0.0016383969923481345,-0.002025888068601489
1702338701912882000,27.7948818359375,-0.0001209390175063163,-0.0034376773983240128,-0.004027541261166334
1702338702013620500,27.895620361328124,-0.0004739704600069672,-0.0028093571309000254,-0.004963908344507217
1702338702114328600,27.99632861328125,-0.0020347959361970425,-0.0034424818586558104,0.0015310758026316762
1702338702214975500,28.0969755859375,-0.00015605658700224012,0.0017998350085690618,-0.0030850449111312628
1702338702315775000,28.19777490234375,0.00035353124258108437,0.004162134137004614,-0.0022712566424161196
1702338702416452600,28.29845263671875,0.004772222135215998,-0.0035220987629145384,-0.0031814861577004194
1702338702517191200,28.399191162109375,-0.0000023615359623363474,-0.0036363445688039064,0.002823980525135994
1702338702617868500,28.49986865234375,0.0031536214519292116,-0.0030224532820284367,0.0036004430148750544
1702338702718576600,28.60057666015625,-0.0018149679526686668,-0.002659812569618225,0.0015341996913775802
1702338702819315200,28.701315185546875,-0.0018830352928489447,0.0019321769941598177,0.0031439566519111395
1702338702920023000,28.80202294921875,-0.0032207954209297895,-0.0038506188429892063,0.0025511414278298616
1702338703020700700,28.90270068359375,0.0014053178019821644,0.004449905827641487,0.0009024971514008939
1702338703121408500,29.003408447265624,0.0042342571541666985,-0.003277035430073738,0.004152321722358465
1702338703222147000,29.10414697265625,0.0013304788153618574,0.00021319925144780427,-0.002047601854428649
1702338703322855200,29.204855224609375,0.0017114602960646152,0.004035170655697584,-0.0027630662079900503
1702338703423563000,29.30556298828125,0.001282554236240685,-0.0023545962758362293,0.0020142041612416506
1702338703524301600,29.406301513671874,-0.0004165577993262559,0.0028087168466299772,-0.004318683873862028
1702338703625009700,29.507009765625,-0.0000900709637789987,-0.00493319146335125,-0.0017437991918995976
1702338703725748200,29.607748291015625,0.0025085664819926023,0.0024930601939558983,0.002963735954836011
1702338703826486800,29.70848681640625,-0.0005078401882201433,-0.0002183610195061192,0.0018503820756450295
1702338704229196500,30.111196533203124,-0.0005626538186334074,-0.004743646830320358,-0.004554178565740585
1702338704330057200,30.21205712890625,-0.0012954178964719176,0.003432054538279772,-0.004063031170517206
1702338704430795800,30.312795654296874,-0.004342093598097563,-0.0011956319212913513,-0.002728370949625969
1702338704531503900,30.41350390625,-0.0014337182510644197,0.0033475286327302456,0.001812337664887309
1702338704632242400,30.514242431640625,-0.0026371153071522713,0.003164163790643215,-0.0030280465725809336
1702338704733011500,30.615011474609375,-0.00489505659788847,-0.0038875287864357233,-0.0018848562613129616
1702338704833750000,30.71575,0.0011584424646571279,-0.0037133856676518917,0.0033880858682096004
1702338704934485500,30.816485595703124,-0.0036937480326741934,0.0006450313376262784,-0.0005740374326705933
1702338705035224000,30.91722412109375,-0.004444196354597807,0.001982464687898755,-0.0010299768764525652
1702338705135962600,31.017962646484374,0.0007848471286706626,-0.0013743079034611583,0.004358696285635233
1702338705236274000,31.11827392578125,0.003081066533923149,-0.004408794455230236,0.0008865696145221591
1702338705336981800,31.218981689453123,-0.00016475736629217863,-0.0029435926117002964,-0.0020389663986861706
1702338705437689900,31.31968994140625,-0.0011672601103782654,0.00022184789122547954,-0.00013962388038635254
1702338705538398000,31.42039794921875,-0.0014396137557923794,-0.002494695596396923,0.0003086221113335341
1702338705639105800,31.521105712890623,0.0004813170526176691,0.00033602953772060573,0.0025259542744606733
1702338705739844400,31.62184423828125,0.0020074439235031605,-0.003325143363326788,0.004658421967178583
1702338705840552400,31.722552490234374,0.004001901019364595,0.00005249559762887657,-0.004633836913853884
1702338705941229800,31.823229736328123,0.003604072378948331,-0.0027663898654282093,-0.0030785100534558296
1702338706041907500,31.923907470703124,0.004311718512326479,-0.001999040599912405,-0.0015597769524902105
1702338706142615600,32.02461547851563,0.00447040842846036,0.0036615044809877872,-0.0009114444255828857
1702338706243384600,32.12538452148438,0.0004421794437803328,0.001801505102775991,-0.00023840814537834376
1702338706344062000,32.22606201171875,0.0015676039038226008,0.0019639444071799517,0.004013837780803442
1702338706444770000,32.32677001953125,-0.0016471598064526916,-0.0035116663202643394,0.004596061538904905
1702338706545508600,32.42750854492188,0.004249453078955412,0.0012107527581974864,0.000885857327375561
1702338706646186000,32.52818603515625,0.0026592833455652,0.003750754054635763,-0.0009145501535385847
1702338706746894000,32.62889404296875,-0.0037676352076232433,-0.0014417303027585149,-0.0011930855689570308
1702338707149726000,33.03172583007812,0.000012019872883684002,-0.004574796184897423,0.0015853291843086481
1702338707250434000,33.13243408203125,0.0038335234858095646,-0.002854015212506056,0.004284915514290333
1702338707351142100,33.23314208984375,0.0028316210955381393,0.0043900650925934315,-0.00010597676009638235
1702338707451850000,33.33385009765625,0.0028472982812672853,-0.0022022987250238657,-0.003918547183275223
1702338707552558000,33.43455810546875,-0.004027153365314007,0.0024757301434874535,-0.004705879837274551
1702338707653266200,33.53526611328125,-0.0011194825638085604,0.003780093276873231,0.0014551961794495583
1702338707753974000,33.63597412109375,-0.002785038435831666,0.001381517038680613,-0.004679592791944742
1702338707854682000,33.73668212890625,0.0004803061601705849,0.0002051019691862166,0.001582941971719265
1702338707955390200,33.83739013671875,-0.0011051461333408952,-0.002629966242238879,-0.0002333208976779133
1702338708056128500,33.93812841796875,-0.00031427800422534347,0.0015435701934620738,0.0014694440178573132
1702338708156806100,34.03880615234375,-0.000657593016512692,-0.0005119150737300515,0.0027917278930544853
1702338708257514000,34.13951391601562,-0.0013652497436851263,-0.0021352649200707674,-0.00020927964942529798
1702338708358191600,34.24019165039063,0.0004826098738703877,-0.004897132981568575,0.0034800416324287653
1702338708458960600,34.34096069335938,0.003252011490985751,-0.00497807702049613,-0.002015391830354929
1702338708559699200,34.44169921875,-0.00033867626916617155,-0.004450712352991104,-0.004657754208892584
1702338708660437800,34.54243774414063,-0.003680372843518853,-0.0005950504564680159,-0.0024190631229430437
1702338708761145600,34.6431455078125,0.003919773269444704,-0.0027384161949157715,0.0022688000462949276
1702338708861884200,34.74388427734375,-0.00029293238185346127,0.0032147604506462812,-0.00238107331097126
1702338709264685800,35.14668579101563,0.004961703438311815,0.0016971880104392767,0.000882759690284729
1702338709365424400,35.24742431640625,-0.004780827090144157,0.003931868821382523,0.003572826972231269
1702338709466315300,35.34831518554687,0.004865806084126234,-0.002737567760050297,-0.00044898063060827553
1702338709567053800,35.4490537109375,0.00040480971802026033,0.0041882372461259365,0.004748072009533644
1702338709667792400,35.54979248046875,-0.003880285657942295,0.003824990475550294,-0.0006564226932823658
1702338709768134100,35.65013403320312,0.0013216084334999323,0.0018415057566016912,0.003942363895475864
1702338709868842200,35.75084228515625,-0.0036287789698690176,0.0016010934486985207,-0.0002719727053772658
1702338709969580800,35.85158081054688,0.00034171759034506977,-0.002608805662021041,-0.00026315212016925216
1702338710070258200,35.95225805664062,-0.0015553570119664073,-0.0033834301866590977,0.003588420106098056
1702338710170996700,36.05299682617188,0.0017582428408786654,0.0028491592966020107,-0.0007732832455076277
1702338710271674400,36.15367431640625,0.002534393686801195,0.002137360628694296,-0.0005566045874729753
1702338710372382200,36.25438232421875,0.0034211957827210426,0.003669561818242073,0.0006777083617635071
1702338710473120800,36.35512084960938,0.0006748855230398476,0.0032570422627031803,-0.0011339468182995915
1702338710573798400,36.45579833984375,0.001768329762853682,-0.0017459392547607422,0.0034181654918938875
1702338710674536700,36.55653662109375,-0.0017666381318122149,0.0010942023945972323,-0.003846385981887579
1702338710986670600,36.86867065429688,0.004868918098509312,-0.002419364172965288,0.001649801735766232
1702338711087409200,36.9694091796875,-0.002747372956946492,0.0014386952389031649,-0.00101196498144418
1702338711188117200,37.0701171875,0.001384772709570825,0.0035213977098464966,0.0022374410182237625
1702338711288794600,37.17079467773438,0.002281100256368518,0.00492598582059145,0.002929604146629572
1702338711389563600,37.27156372070313,0.002638195175677538,-0.0020073619671165943,0.0036771141458302736
1702338711490241300,37.3722412109375,0.0009996718727052212,0.0004653102078009397,-0.0031084821093827486
1702338711590979600,37.4729794921875,-0.000324346125125885,0.0006956487777642906,-0.00003913939144695178
1702338711691657200,37.5736572265625,0.004123127553611994,-0.003328828141093254,-0.000341888953698799
1702338711792365300,37.674365234375,0.004965310916304588,-0.003504485823214054,0.002322025364264846
1702338711893103600,37.775103515625,0.00285605201497674,-0.0002868625451810658,0.0029087800066918135
1702338711993781200,37.87578125,-0.004626805894076824,0.003083950374275446,0.0001695239479886368
1702338712094489000,37.97648901367187,0.004224780946969986,0.000836407532915473,-0.0036172682885080576
1702338712195197200,38.077197265625,-0.0007416522712446749,-0.0033510958310216665,0.0021707993000745773
1702338712295905300,38.1779052734375,0.0007491534925065935,0.000040205122786574066,0.00036668061511591077
1702338712396613000,38.27861303710937,-0.004676832351833582,0.0021088295616209507,-0.0024397235829383135
1702338712497321200,38.3793212890625,0.004475377965718508,-0.0026524318382143974,0.004770925734192133
1702338712598059800,38.48005981445313,-0.0035959810484200716,0.0033930600620806217,-0.002905400935560465
1702338712698768000,38.58076782226563,0.0017900801030918956,0.00260014901868999,-0.004104273859411478
1702338712799445200,38.6814453125,0.002660681027919054,0.0031675887294113636,-0.00008963614527601749
1702338712900153300,38.7821533203125,0.004539696965366602,-0.00027274072635918856,0.0035447729751467705
1702338713000861200,38.88286108398437,-0.0016882079653441906,0.002362459897994995,0.00487316120415926
1702338713101569300,38.9835693359375,-0.0007477611070498824,0.000262253888649866,-0.0006272864411585033
1702338713202277400,39.08427734375,-0.00007759600703138858,0.004073873162269592,-0.003996310755610466
1702338713302985200,39.18498510742187,-0.0010607504518702626,0.002378839300945401,-0.004920503590255976
1702338713403693300,39.285693359375,0.00402978528290987,-0.003922354429960251,-0.0023675484117120504
1702338713504401400,39.3864013671875,0.0016777676064521074,0.0003926098288502544,0.0024532407987862825
1702338713605140000,39.48713989257813,-0.0018842676654458046,-0.002020506886765361,0.0021192431449890137
1702338713705847800,39.58784790039063,0.00011323690705467016,0.0003905057965312153,0.0018394148210063577
1702338713806525400,39.688525390625,-0.004312935285270214,-0.002712898189201951,-0.0034344163723289967
1702338713907233300,39.7892333984375,-0.004262861795723438,-0.002541573019698262,-0.002372905844822526
1702338715649419300,41.531419189453125,-0.0015566780930384994,-0.003883937606588006,-0.0029409765265882015
1702338716424871000,42.306870849609375,0.0014457970391958952,0.0010368841467425227,0.004344244487583637
1702338716525579000,42.4075791015625,-0.004338158760219812,-0.003953809384256601,0.001645212178118527
1702338716928411000,42.810410888671875,-0.0010322552407160401,0.0030179398600012064,0.0011276549194008112
1702338717029088500,42.91108862304687,0.002634509699419141,-0.0028034918941557407,0.004091425333172083
1702338717129827000,43.0118271484375,-0.0007495990139432251,0.0012042272137477994,0.003492597956210375
1702338717230504400,43.11250439453125,-0.004228387027978897,-0.0004950016736984253,0.0013964802492409945
1702338717331243000,43.213242919921875,-0.0006506383651867509,-0.0025240962859243155,-0.0022780245635658503
1702338717431951000,43.313951171875,-0.0002620446612127125,-0.0009053107933141291,-0.0033832096960395575
1702338717532689700,43.41468969726562,0.0007423699134960771,0.003974243998527527,0.002438606694340706
1702338717633397500,43.5153974609375,0.004159561824053526,0.002587354276329279,-0.0035337451845407486
1702338717734075100,43.6160751953125,-0.0005254530697129667,0.00080357730621472,-0.0005191356176510453
1702338717834783000,43.716782958984375,0.0038240058347582817,0.0039519346319139,0.0013213717611506581
1702338717935521500,43.817521484375,0.0047284322790801525,0.003903062315657735,-0.004808603320270777
1702338718036199200,43.91819921875,0.0019280738197267056,-0.003827931359410286,-0.0019882293418049812
1702338718136907000,44.018906982421875,0.0018429177580401301,0.00010217011003987864,-0.0006061589810997248
1702338718237615000,44.119614990234375,-0.0011459204833954573,0.000778083223849535,0.0011472887126728892
1702338718338323200,44.2203232421875,0.0049422262236475945,0.0009223949746228755,-0.0014770582783967257
1702338718439092200,44.32109228515625,-0.0030908065382391214,0.003815477481111884,0.0009273439645767212
1702338718539800000,44.421800048828125,-0.0042454153299331665,-0.0030288214329630136,0.0026423102244734764
1702338718640538600,44.52253857421875,0.004619759973138571,-0.0037242937833070755,-0.0029386943206191063
1702338719043309600,44.9253095703125,0.0007194167119450867,0.00012638448970392346,-0.0011290395632386208
1702338719144017700,45.026017578125,-0.0017119410913437605,0.002199421636760235,-0.00018619447655510157
1702338719244756200,45.126756103515625,-0.00038791089900769293,-0.0031002131290733814,0.0022116154432296753
1702338719345464300,45.22746435546875,0.0010237080277875066,0.0016776329139247537,0.004445561207830906
1702338719446141700,45.3281416015625,0.0003544276987668127,-0.004293253645300865,0.0010218494571745396
1702338719546849800,45.42884985351562,-0.004812971688807011,0.0014488035812973976,0.0031569981947541237
1702338719647557600,45.5295576171875,0.004556401167064905,-0.00441311439499259,0.003002539277076721
1702338719748296200,45.630296142578125,-0.0009349861647933722,-0.002365207765251398,-0.0021158119197934866
1702338719849004300,45.73100439453125,0.0030921250581741333,0.0013540864456444979,0.001663552480749786
1702338719949742800,45.83174291992187,0.0016606003046035767,0.004842072259634733,0.0011711966944858432
1702338720050450700,45.93245068359375,0.00007160424866015092,0.004551181104034185,0.002592541044577956
1702338720151128300,46.03312841796875,0.004257300402969122,-0.0011573355877771974,-0.002550002420321107
1702338720251836200,46.133836181640625,0.002409940352663398,-0.0038536095526069403,0.001131033874116838
1702338720352544300,46.234544189453125,0.00029591680504381657,-0.00023823202354833484,0.0012425631284713745
1702338721158147300,47.040147216796875,-0.0013887077802792192,-0.004646711051464081,0.004124119412153959
1702338721258886000,47.14088598632812,0.0026705688796937466,-0.0016955798491835594,-0.0005007499712519348
1702338721359563300,47.241563232421875,-0.001347653567790985,-0.0028804324101656675,0.004571836441755295
1702338721460271400,47.342271240234375,-0.004080646205693483,-0.0019579888321459293,0.00029185294988565147
1702338721561010000,47.44301000976562,0.0038225101307034492,0.001511960057541728,0.001618394278921187
1702338721661687300,47.543687255859375,-0.003205244429409504,-0.002324236324056983,-0.0038700734730809927
1702338721762425900,47.64442578125,0.0016989660216495395,0.0038132977206259966,-0.004631066229194403
1702338721863103500,47.745103515625,0.003977007698267698,-0.00182233692612499,-0.004031443502753973
1702338721963811300,47.845811279296875,-0.002783965552225709,0.0013204037677496672,0.00010381639003753662
1702338722064519400,47.94651953125,-0.004420255310833454,-0.0010375675046816468,-0.0015639003831893206
1702338722165258000,48.04725805664062,0.003069463884457946,-0.0035861474461853504,0.0045823873952031136
1702338722265935400,48.147935302734375,0.003753344528377056,-0.003946390934288502,0.003645792603492737
1702338722366643500,48.2486435546875,-0.0009562072227708995,0.0033759200014173985,0.0025175237096846104
1702338722467351300,48.349351318359375,-0.004185488447546959,-0.0019273307407274842,-0.00054778071353212
1702338722568059400,48.450059326171875,0.00012809931649826467,0.0010285705793648958,0.003938203677535057
1702338722668798000,48.5507978515625,0.0029272364918142557,-0.002716063056141138,0.004797648172825575
1702338722769475300,48.651475341796875,0.0036180519964545965,-0.0013106497935950756,0.0010277122491970658
1702338722870183400,48.752183349609375,0.0009134429856203496,-0.0002301400963915512,0.0012572717387229204
1702338723273046000,49.1550458984375,0.00449612969532609,0.001500787097029388,-0.004584294743835926
1702338723373784600,49.25578466796875,0.0018012392101809382,0.004804785363376141,-0.000570843811146915
1702338723474492400,49.356492431640625,0.00003032386302947998,0.0033527379855513573,-0.00031233340268954635
1702338723575170000,49.45717016601562,0.004912989214062691,-0.0022018414456397295,0.00315402215346694
1702338723675847400,49.557847412109375,-0.00113825558219105,-0.003814736381173134,-0.0016696113161742687
1702338723776616400,49.658616455078125,0.003579945070669055,0.0003619891358539462,0.001662496360950172
1702338723877324500,49.759324462890625,0.0038481163792312145,-0.001206234679557383,0.001090899109840393
1702338723978032600,49.86003271484375,-0.0044661955907940865,-0.00447275722399354,-0.0020450057927519083
1702338724078740500,49.960740478515625,-0.003055374603718519,0.0033605468925088644,-0.002862311666831374
1702338724179448600,50.061448486328125,-0.0045753358863294125,0.004131371155381203,-0.004869504831731319
1702338724280156700,50.16215673828125,-0.003924357704818249,0.0027454597875475883,-0.004273316357284784
1702338724380895200,50.26289526367187,-0.002490393118932843,-0.0001301503216382116,-0.0024992257822304964
1702338724481572600,50.363572509765625,-0.003204912645742297,0.0041821543127298355,0.004648219328373671
1702338724582280700,50.46428076171875,0.0005511248018592596,-0.0039580585435032845,-0.002262102672830224
1702338724683019300,50.56501928710937,-0.00453544408082962,-0.0011303791543468833,0.0045876167714595795
1702338724783727000,50.66572705078125,-0.0010296344989910722,0.0006711888127028942,0.0007134854677133262
1702338724884404700,50.76640478515625,-0.004141051322221756,-0.00307087367400527,0.003107392229139805
1702338724985112600,50.867112548828125,-0.0006759947282262146,-0.00030930936918593943,0.004761859308928251
1702338728308433400,54.19043334960938,-0.003894026391208172,0.003360528964549303,0.000027000904083251953
1702338728409141500,54.2911416015625,0.004176080692559481,0.004015747923403978,0.0007597524090670049
1702338728509849300,54.39184936523438,-0.003956176806241274,-0.0001714062673272565,-0.004930707160383463
1702338728610557400,54.49255737304688,-0.0009111124090850353,-0.004716515075415373,-0.002702755620703101
1702338728711265500,54.593265625,0.003896888578310609,0.004760288633406162,-0.00018261969671584666
1702338728811973400,54.69397338867188,0.00457804137840867,-0.004634572193026543,0.0015557032311335206
1702338728912681500,54.79468139648438,-0.0030478823464363813,-0.002206771168857813,0.004262969363480806
1702338729013389300,54.89538940429688,0.0009273397736251354,0.0018798225792124867,0.0008842134266160429
1702338729114097400,54.99609741210938,-0.004159307107329369,-0.002049349946901202,-0.001522074337117374
1702338729214805500,55.09680541992188,-0.001841183053329587,-0.0004955738550052047,0.004978548269718885
1702338729315513300,55.19751342773438,0.0002657300210557878,0.003993293736129999,0.0035838079638779163
1702338729416252000,55.298251953125,-0.0013204201823100448,0.001370360841974616,0.0007238584803417325
1702338729516960000,55.3989599609375,0.0018989491509273648,0.004114310722798109,-0.0032575642690062523
1702338729617637400,55.49963745117188,0.003895193338394165,-0.003861243836581707,-0.0021023773588240147
1702338729718345500,55.60034545898438,-0.004708634223788977,-0.004880046471953392,-0.0010566359851509333
1702338729819084000,55.701083984375,-0.00378305371850729,0.004641217645257711,-0.0014985263114795089
1702338729919761400,55.80176147460938,0.00034689903259277344,0.001095074461773038,0.0032972407061606646
1702338733041679400,58.923679443359376,-0.0002359005738981068,-0.0035717147402465343,-0.002002518391236663
1702338733142417700,59.02441772460938,-0.000471907842438668,-0.001065245596691966,-0.0017812156584113836
1702338733243125800,59.12512573242188,-0.0008644452900625765,0.004313752055168152,0.0008281224872916937
1702338733343803100,59.22580322265625,-0.003949190489947796,-0.003351990832015872,-0.0019569378346204758
1702338733444541700,59.32654174804688,0.00458317156881094,-0.0029041331727057695,-0.004394209943711758
1702338733545280300,59.4272802734375,0.0030057323165237904,0.0026996128726750612,0.0024932711385190487
1702338733645988400,59.52798828125,-0.0023907283321022987,0.0036139213480055332,-0.004642878659069538
1702338733746665700,59.62866577148438,-0.004075104370713234,0.0013292848598212004,0.004062301013618708
1702338733847404300,59.729404296875,-0.0039638797752559185,0.0021094661206007004,-0.0020655859261751175
1702338733948082000,59.83008203125,0.0002758330083452165,0.002916663885116577,0.0009115809225477278
1702338734048820200,59.9308203125,-0.004706233274191618,-0.00011300176265649498,-0.0030090552754700184
1702338734149497900,60.03149780273438,0.00032488524448126554,0.0040428065694868565,0.004180233459919691
1702338734250206000,60.1322060546875,-0.0036035061348229647,0.0030620121397078037,-0.004638953600078821
1702338734350913800,60.23291381835938,-0.004930092487484217,0.0008840727969072759,-0.0006283092661760747
1702338734451622000,60.33362182617188,0.0035906678531318903,0.0003157919563818723,-0.0029991024639457464
1702338734552330000,60.434330078125,0.004030291922390461,-0.0038848579861223698,-0.002025727415457368
1702338734653099000,60.53509912109375,-0.0026199743151664734,0.0044284844771027565,-0.0026476678904145956
1702338734753837300,60.63583740234375,0.002921195002272725,-0.002442814176902175,0.0008828812860883772
1702338734854515000,60.73651489257813,0.003060831455513835,0.0026374650187790394,-0.0038101004902273417
1702338734955223000,60.83722314453125,-0.0005626172060146928,-0.003732066135853529,0.00358551274985075
1702338735055961300,60.93796142578125,-0.0026478078216314316,-0.0023681435268372297,-0.003004130208864808
1702338735156608500,61.0386083984375,-0.0027490463107824326,0.00467624980956316,0.002894381294026971
1702338735257347000,61.13934716796875,0.002552984282374382,-0.0047255586832761765,0.0017168748890981078
1702338735358085400,61.24008544921875,0.004057790618389845,-0.0012321257963776588,-0.0020271227695047855
1702338735458763000,61.34076293945313,0.0000256592029472813,-0.0018230401910841465,0.0009056818671524525
1702338735559471000,61.44147119140625,-0.0031993621960282326,-0.004595993552356958,0.004866594448685646
1702338735660148500,61.5421484375,-0.00004771917883772403,0.0010202801786363125,0.004867540206760168
1702338735760856600,61.642856689453126,0.0013673317153006792,-0.004949941765516996,-0.004345983266830444
1702338735861564400,61.743564453125,0.0022222071420401335,0.004896567668765783,0.0005167674971744418
1702338735962333400,61.84433349609375,-0.0032136249355971813,-0.003915046341717243,0.0015909362118691206
1702338736063011000,61.94501098632813,0.0031090222764760256,-0.0019974082242697477,0.0013697248650714755
1702338736163719000,62.04571899414063,0.003847532905638218,0.0040882485918700695,-0.001012945780530572
1702338739285604000,65.16760400390625,-0.0008447715663351119,0.00018746554269455373,0.003999713808298111
1702338739386312200,65.26831225585937,-0.0031910776160657406,-0.0031363177113234997,0.0009895563125610352
1702338739488485000,65.37048510742187,-0.003171813441440463,0.002933993935585022,0.0032384442165493965
1702338739587728100,65.46972802734375,-0.0012743293773382902,0.003467894159257412,-0.0015488914214074612
1702338739688436200,65.57043627929687,0.0049323029816150665,-0.0004216831875964999,0.0013165170093998313
1702338739789174800,65.6711748046875,-0.0038037279155105352,0.0010842162882909179,0.004519091919064522
1702338739889852200,65.77185205078125,0.0008542263531126082,0.001109793782234192,-0.002370551461353898
1702338739990560300,65.87256030273437,-0.002189198974519968,-0.002883764449506998,-0.002151247812435031
1702338740091298800,65.973298828125,-0.003222402883693576,-0.0048887161538004875,-0.003202645108103752
1702338740192006700,66.07400659179687,-0.0015938201686367393,-0.000005626380243484164,-0.002575666643679142
1702338740292684300,66.17468432617187,0.0035407424438744783,0.004658563528209925,0.0027698755729943514
1702338740393392000,66.27539208984375,-0.004340967163443565,-0.0043465918861329556,-0.0023371041752398014
1702338740494100200,66.37610034179687,-0.00041797966696321964,-0.0033744985703378916,-0.00249494262970984
1702338740594808300,66.47680834960937,0.003972779493778944,0.0025813423562794924,0.004211898893117905
1702338740695516200,66.57751611328125,-0.004919174127280712,-0.0026774860452860594,0.0021656339522451162
1702338744310888700,70.192888671875,0.002317859558388591,0.0018823373829945922,-0.00014311104314401746
1702338744411627300,70.29362719726562,0.003846307285130024,-0.004412922076880932,-0.0009246632689610124
1702338744512335400,70.39433544921874,-0.0008190062362700701,-0.004298042505979538,-0.00232529453933239
1702338744613043200,70.49504321289062,-0.0046309903264045715,0.001279346994124353,-0.0035041477531194687
1702338744713751300,70.59575122070312,-0.0047666593454778194,-0.00026651142979972064,-0.0019883629865944386
1702338744814489900,70.69648974609375,0.0010498047340661287,0.0024864005390554667,-0.001456309575587511
1702338744915167200,70.79716723632812,0.004919739905744791,-0.0016988477436825633,-0.004829850047826767
1702338745015875300,70.89787524414062,0.003005102975293994,0.0027843427378684282,0.002205108292400837
1702338745116674800,70.9986748046875,-0.004029940348118544,-0.001474260352551937,-0.0016322735464200377
1702338745217291300,71.09929125976562,0.004705427214503288,0.002971446607261896,-0.0025327219627797604
1702338745317999400,71.19999926757812,-0.0031421927269548178,0.003793724114075303,0.0028125334065407515
1702338745418707500,71.30070751953124,0.0008445560815744102,-0.0040181297808885574,-0.0035970669705420732
1702338745519415300,71.40141528320312,0.0013491433346644044,0.004673227202147245,0.004540296737104654
1702338745620123400,71.50212329101562,-0.001644822652451694,0.003883457276970148,0.003394458210095763
1702338745720831500,71.60283154296874,0.9548164010047913,0.052130527794361115,0.013041003607213497
1702338745821539300,71.70353930664062,10.185644149780273,-0.0008010921301320195,0.11839939653873444
1702338745922247400,71.80424731445312,3.377703905105591,-0.21524815261363983,-0.0019410164095461369
1702338746022955300,71.90495532226562,-1.0100287199020386,0.449847549200058,0.05739441141486168
1702338746123724500,72.005724609375,-0.45575809478759766,0.046258553862571716,-0.11617110669612885
1702338746224432400,72.10643237304687,0.3942396938800812,0.3050728142261505,-0.025798296555876732
1702338746325140500,72.20714038085937,-1.1089897155761719,0.5031227469444275,0.09147383272647858
1702338746425870000,72.3078701171875,-1.2053595781326294,0.3845129609107971,0.04214990511536598
1702338746526578200,72.408578125,-0.5029863119125366,0.3480950891971588,-0.012841138988733292
1702338746627591400,72.50959130859376,-0.059724099934101105,0.2650139033794403,-0.03383249044418335
1702338746728268800,72.61026879882813,-0.06661460548639297,0.12396232038736343,-0.00803113728761673
1702338746828732700,72.71073266601563,0.15817086398601532,-0.01812986098229885,0.41882890462875366
1702338746929651200,72.81165112304687,-0.21266183257102966,-0.10293414443731308,0.16633352637290955
1702338747030115000,72.91211499023437,0.24405401945114136,1.7695379257202148,0.9391144514083862
1702338747130823200,73.0128232421875,-0.5219875574111938,0.7884209752082825,0.7391972541809082
1702338747231561700,73.11356176757812,-0.7684686183929443,0.25222426652908325,0.6325833201408386
1702338747332239000,73.21423901367187,-0.3090035617351532,0.3117694556713104,0.5540841221809387
1702338748137842200,74.01984228515624,0.591343879699707,0.5319008231163025,2.1359875202178955
1702338748238550300,74.12055029296874,0.5636267066001892,0.7527211308479309,1.1730490922927856
1702338750554707500,76.43670751953125,0.20563827455043793,-0.01611504703760147,0.002710561966523528
1702338750655507000,76.5375068359375,-0.05347706004977226,-0.005568680819123983,0.0009527079528197646
1702338750756215000,76.63821508789063,0.032521653920412064,0.0011245164787396789,-0.0015954261180013418
1702338750856923100,76.73892309570313,0.001431449200026691,0.00006971903349040076,-0.00008932519995141774
1702338750957631000,76.839630859375,0.0000016907135886867763,8.234653847694062e-8,-1.055037941455339e-7
1702338751058339000,76.94033911132813,-0.0018988341325893998,-0.0016592135652899742,0.002886170754209161
1702338751159047200,77.04104711914063,-0.003586950246244669,0.0009329909225925803,0.0038505715783685446
1702338751259755000,77.14175512695313,0.001388235716149211,-0.002278564963489771,-0.00043136210297234356
1702338751360463000,77.24246313476563,0.004139076918363571,0.002808397402986884,-0.0035731017123907804
1702338751461177900,77.343177734375,-0.0037027609068900347,0.0026400177739560604,0.004423622041940689
1702338751561916400,77.44391650390625,0.0017671388341113925,-0.0006682735402137041,0.004258650355041027
1702338751662593800,77.54459375,-0.0036274271551519632,0.0019541000947356224,-0.002323922235518694
1702338751763302000,77.64530200195313,0.0012395036173984408,0.0037428527139127254,-0.002011482138186693
1702338751884170200,77.76617016601563,0.0012395947705954313,0.0009496640996076167,0.002484948607161641
1702338751984878300,77.86687841796875,0.0018832284258678555,-0.0030850430484861135,0.0024720209185034037
1702338752085800000,77.96780004882812,-0.0023741235490888357,-0.0014342436334118247,-0.0008821329683996737
1702338752186386000,78.06838598632812,-0.00263713370077312,-0.0017282143235206604,-0.004407236818224192
1702338755308242400,81.19024243164063,0.00331964367069304,-0.002023920649662614,-0.004941103979945183
1702338755408950500,81.29095043945313,-0.0023644445464015007,-0.0005606341292150319,-0.0028195097111165524
1702338755509658600,81.39165869140625,-0.0015330171445384622,-0.0005307852989062667,0.0014882528921589255
1702338755610366500,81.49236645507813,-0.004886402748525143,-0.00023792505089659244,-0.004157159477472305
1702338755711074600,81.59307446289063,-0.00043973384890705347,0.0014733391581103206,0.0031741929706186056
1702338755811782700,81.69378271484375,-0.0009493500110693276,0.004515942186117172,-0.0015505269402638078
1702338755912490500,81.79449047851563,-0.0009786910377442837,-0.0011547509348019958,-0.00201013358309865
1702338756013229000,81.89522900390625,0.0018545108614489436,0.0012272762833163142,0.0009608507389202714
1702338756113906700,81.99590673828125,-0.003825958352535963,0.001163352164439857,0.00003524184285197407
1702338756214645200,82.09664526367187,-0.001685889670625329,-0.0036608248483389616,0.0026530700270086527
1702338756315322600,82.19732250976563,-0.0004318749997764826,0.0012174922740086913,0.0011742294300347567
1702338756416030700,82.29803076171875,-0.0010179132223129272,-0.004598434083163738,-0.0008855131454765797
1702338756516738600,82.39873852539063,0.00041657924884930253,-0.0029207926709204912,0.0009400487178936601
1702338756617446700,82.49944677734375,0.00062273204093799,-0.0038861713837832212,0.004546334967017174
1702338756718154800,82.60015478515625,-0.0034563480876386166,0.00194498838391155,-0.0023458816576749086
1702338756818862600,82.70086254882813,0.0017135250382125378,0.002919594058766961,0.003415154293179512
1702338756919570700,82.80157080078125,0.0015133172273635864,-0.0023152304347604513,-0.00401736656203866
1702338757020309200,82.90230932617187,-0.0037567096296697855,-0.0022084428928792477,-0.00116969202645123
1702338757121047800,83.0030478515625,0.0033947729971259832,-0.002530641620978713,0.0029238564893603325
1702338757221755600,83.10375561523438,0.003134999191388488,-0.0042026652954518795,-0.0010346627095714211
1702338757322463700,83.20446362304688,0.0031262487173080444,-0.000013400912393990438,0.004472250118851662
1702338757423171800,83.305171875,-0.0026990347541868687,-0.0030333471950143576,-0.002538232831284404
1702338757524398600,83.40639868164062,-0.003671895945444703,-0.0003764924476854503,-0.004397057928144932
1702338757624618200,83.5066181640625,-0.0034800327848643064,-0.0007870870758779347,0.0038484639953821898
1702338757725295900,83.6072958984375,-0.002162933349609375,-0.0035129201132804155,0.004215294495224953
1702338757826034200,83.7080341796875,0.0011517632519826293,-0.004808660596609116,-0.0032589922193437815
1702338757926742300,83.8087421875,-0.00004413753777043894,-0.0007888802792876959,0.0002179199509555474
1702338758027420000,83.909419921875,-0.0017899414524435997,0.0012050342047587037,0.0023140436969697475
1702338758128127700,84.01012768554688,0.0006227362318895757,-0.002612321637570858,0.0006713634938932955
1702338758228835800,84.1108359375,-0.0007430979749187827,0.000998513656668365,0.0009011828806251287
1702338758329543700,84.21154370117188,0.0030782646499574184,0.0002115780080202967,-0.0016821649624034762
1702338759135146800,85.01714672851563,0.0010684860171750188,0.001953576225787401,-0.0040852283127605915
1702338759235854800,85.11785473632813,0.0037356638349592686,-0.0003139829495921731,-0.004144317004829645
1702338759336593400,85.21859350585937,0.00361707154661417,-0.00040638030623085797,-0.004973802249878645
1702338760142227000,86.02422705078125,-0.0047296639531850815,0.004524358082562685,-0.0018842676654458046
1702338760242965500,86.12496557617187,-0.002240570727735758,-0.001169899944216013,-0.0004997029900550842
1702338760343643000,86.22564282226563,0.002589823678135872,-0.003886752063408494,0.0036095399409532547
1702338760444351000,86.32635107421875,-0.0009327974985353649,0.003113651182502508,0.004591019824147224
1702338760545058800,86.42705883789063,-0.004557787906378508,-0.0009938589064404368,0.0003824037266895175
1702338760645752600,86.52775268554687,0.0004966664128005505,0.0016061508795246482,-0.00009691924060462043
1702338761048584700,86.93058471679687,-0.001006669132038951,0.003712767269462347,-0.0004320666193962097
1702338761149323300,87.0313232421875,-0.0048155514523386955,0.004971829708665609,0.0007438206812366843
1702338761250000600,87.13200073242187,0.004973480012267828,-0.004485198762267828,-0.0038974639028310776
1702338761350708700,87.23270874023437,-0.004129487089812756,0.0003346908197272569,0.0026081979740411043
1702338761451416600,87.33341650390625,0.0040513514541089535,0.004971599206328392,0.0015706110280007124
1702338761552124700,87.43412475585937,0.0028825909830629826,-0.0026965904980897903,-0.004942360799759626
1702338761652832800,87.53483276367187,0.00484237726777792,0.0013613731134682894,-0.0011414438486099243
1702338761753540600,87.63554052734375,-0.0025339580606669188,-0.0010986417764797807,0.0006564789800904691
1702338761854248700,87.73624877929687,0.0009193378500640392,-0.004855691455304623,-0.0015107383951544762
1702338761954956800,87.83695678710937,-0.004222442861646414,-0.00024329782172571868,-0.0029982856940478086
1702338762055756300,87.93775634765625,0.00014024614938534796,-0.004058334045112133,0.0009568053646944463
1702338762156433700,88.03843359375,0.0038319509476423264,-0.0008534350781701505,-0.003865071339532733
1702338762257141800,88.13914184570312,0.00011039376113330945,-0.0038147103041410446,0.0018575579160824418
1702338762357880300,88.23988037109375,0.001911728410050273,0.0035145722795277834,-0.0031218845397233963
1702338762458557700,88.3405576171875,-0.0005832010647282004,0.001362296286970377,-0.00011204749171156436
1702338762559265800,88.44126586914062,-0.003394875442609191,0.0015758239896968007,0.0006354039651341736
1702338762660004400,88.54200439453125,0.004130231216549873,-0.0033512020017951727,0.0031107007525861263
1702338762760681700,88.642681640625,-0.003864942118525505,0.0009145480580627918,0.002847484312951565
1702338766285401000,92.16740112304687,0.003121861256659031,0.0008148396154865623,-0.003826296888291836
1702338766386017500,92.268017578125,0.0029240690637379885,-0.0025304441805928946,0.0007529878639616072
1702338766486847500,92.36884741210937,0.004245281685143709,-0.004757012706249952,-0.0033495216630399227
1702338766587525000,92.46952514648437,0.0010702162981033325,-0.002034947043284774,-0.001025088131427765
1702338766688233000,92.57023291015625,-0.00042405189014971256,-0.002238827059045434,0.0014227539068087935
1702338766788941000,92.67094116210937,-0.002279173117130995,-0.0035390250850468874,0.0004940122598782182
1702338766889649200,92.77164916992187,0.004060276784002781,-0.0018913206877186894,0.0034351497888565063
1702338766990357000,92.87235693359375,0.0009344393038190901,-0.004029522184282541,0.0024096446577459574
1702338767091065000,92.97306518554687,-0.003941764123737812,-0.00041005879756994545,0.0000758135283831507
1702338767191773200,93.07377319335937,-0.0010454958537593484,-0.003604877507314086,-0.0027835264336317778
1702338767292481000,93.17448095703125,0.004856261424720287,-0.0007444459479302168,0.00226946291513741
1702338767393189000,93.27518920898437,0.004068110603839159,-0.0044622221030294895,-0.0002617400896269828
1702338767493897200,93.37589721679687,0.0005602270248346031,-0.00430961512029171,-0.0043950676918029785
1702338767594605000,93.47660498046875,-0.003040397074073553,-0.004817241337150335,0.001625306555069983
1702338767695313200,93.57731323242187,0.0043389503844082355,0.004031702876091003,-0.0009230381110683084
1702338767796021200,93.67802124023437,-0.0034361528232693672,-0.0045829471200704575,0.004831170663237572
1702338767896759800,93.778759765625,-0.000017961561752599664,-0.0030614659190177917,0.003719768486917019
1702338767997437200,93.87943725585937,0.0048778424970805645,-0.002377309836447239,-0.00006862044392619282
1702338768098206200,93.98020629882812,0.0012161076301708817,-0.0000844976311782375,0.0017840921645984054
1702338768198914300,94.08091430664062,-0.0049371179193258286,0.0009054100373759866,0.0016196244396269321
1702338768299622100,94.1816220703125,0.0021649617701768875,0.0041306824423372746,0.001423714798875153
1702338768400360700,94.28236059570312,0.0038757086731493473,0.004013670142740011,0.004096745979040861
1702338768501038300,94.38303833007812,-0.002044979715719819,-0.00483317207545042,0.00045400261296890676
1702338768601746200,94.48374609375,-0.001548547763377428,-0.00038929283618927,-0.0009844499872997403
1702338768702454300,94.58445434570312,0.0014664524933323264,-0.0027374308556318283,0.003470971481874585
1702338768803131600,94.68513159179687,-0.0016630905447527766,0.004966923035681248,-0.0003452390374150127
1702338768903870200,94.7858701171875,-0.0008155921241268516,0.004324525594711304,0.0046676951460540295
1702338769004578300,94.88657836914062,-0.00018886775069404393,-0.003187010530382395,-0.003292518900707364
1702338769105530400,94.9875302734375,-0.00018047720368485898,-0.0034557017497718334,-0.00029942303081043065
1702338769205994200,95.087994140625,-0.00414780480787158,-0.0023499440867453814,-0.0024126775097101927
1702338769306702300,95.18870239257812,0.0003952574625145644,0.0010358267463743687,0.00047753393300808966
1702338769407441000,95.28944091796875,-0.004619816318154335,0.0014979052357375622,0.0006784921861253679
1702338769508148700,95.39014868164062,0.00018276632181368768,-0.003032044507563114,-0.001587351318448782
1702338770414460000,96.2964599609375,0.0028317361138761044,-0.004337535705417395,-0.004000214394181967
1702338771220093400,97.10209350585937,0.001342857489362359,-0.0001371145190205425,-0.004320402164012194
1702338771320801500,97.20280151367187,-0.000049802361900219694,0.0025715220253914595,0.0023633772507309914
1702338771421539800,97.30353979492187,0.0024334806948900223,0.0009809709154069424,-0.0034293681383132935
1702338771522217500,97.40421752929687,0.0024973959662020206,0.0043221088126301765,0.003301864955574274
1702338771622925600,97.50492553710937,0.0007780760643072426,0.004148262552917004,0.003335421672090888
1702338771723633400,97.60563330078125,-0.0018282723613083363,0.00026513158809393644,0.0020770288538187742
1702338771824341500,97.70634155273437,-0.0012281563831493258,0.002122159581631422,0.0011986935278400779
1702338772227144400,98.10914453125,-0.0014123297296464443,-0.004796491004526615,-0.003668347606435418
1702338772327882800,98.2098828125,-0.0028811246156692505,-0.003750966163352132,-0.0036575531121343374
1702338772428590800,98.3105908203125,-0.0030078536365181208,0.003050423227250576,0.003626878373324871
1702338772529299000,98.411298828125,-0.000791272206697613,-0.004964073654264212,0.001899588736705482
1702338772630006800,98.5120068359375,-0.0035435836762189865,0.0028455276042222977,0.004187459126114845
1702338772730715000,98.61271484375,-0.0014753994764760137,-0.0007553494069725275,0.0037713998463004827
1702338772831423000,98.71342309570312,0.0008601421141065657,0.00212386017665267,-0.001050690421834588
1702338772932130800,98.814130859375,0.0018584835343062878,-0.003058319678530097,-0.0021201767958700657
1702338773032839000,98.9148388671875,0.0026235885452479124,0.0011641073506325483,-0.002460666699334979
1702338773133547000,99.01554711914062,0.002842817222699523,0.00032178402761928737,0.004595312289893627
1702338773234316000,99.11631591796875,-0.0005847275024279952,0.003988925367593765,-0.0013075348688289523
1702338773335054600,99.2170546875,0.004784425720572472,-0.0009369024774059653,-0.000560190062969923
1702338773436189700,99.31818969726562,-0.0020269332453608513,0.001400177483446896,-0.004223625175654888
1702338773536470500,99.41847045898437,0.0007586937863379717,-0.0028619510121643543,0.0047918446362018585
1702338773637148000,99.51914794921875,-0.003962534945458174,0.004310166463255882,-0.0009725442505441606
1702338773737856000,99.61985595703125,0.001363213057629764,0.00007895767339505255,-0.0005877217627130449
1702338773838564000,99.72056420898437,-0.0032172398641705513,0.0011778664775192738,0.0013780773151665926
1702338773939272000,99.82127197265625,0.002186309779062867,-0.0020063351839780807,-0.003929730039089918
1702338774845583000,100.7275830078125,0.0013153314357623458,-0.000362302060239017,-0.0035236552357673645
1702338774946291000,100.828291015625,-0.0008200633455999196,0.0015145570505410433,-0.002502092160284519
1702338775046999000,100.9289990234375,0.0030702727381139994,-0.0049530137330293655,-0.003343725111335516
1702338775147707100,101.02970703125,0.001906762132421136,0.00207913457415998,-0.001162559725344181
1702338775248445700,101.13044580078125,-0.004133637063205242,0.0004007762763649225,0.00030163885094225407
1702338775349123000,101.231123046875,0.00183128472417593,0.0034082955680787563,0.004144380800426006
1702338775449831200,101.3318310546875,-0.0036443728022277355,0.003699868218973279,0.0006134885479696095
1702338775550569700,101.43256982421875,0.004374768119305372,-0.004657157231122255,0.0016188877634704113
1702338775651247000,101.5332470703125,-0.0011693898122757673,0.0037742918357253075,-0.0002870506141334772
1702338775751985700,101.63398559570312,0.000595934980083257,0.004872917663305998,-0.002301073633134365
1702338775852937700,101.73493774414062,0.004826816264539957,-0.004495559725910425,-0.00034025608329102397
1702338775953401600,101.83540161132812,0.0015529292868450284,0.0038623923901468515,0.0031906086951494217
1702338776054109700,101.93610961914062,0.0016875028377398849,0.002704142825677991,-0.0029058295767754316
1702338776154787000,102.036787109375,-0.0012265684781596065,0.00463153375312686,0.0012878257548436522
1702338776255495200,102.1374951171875,-0.003162199165672064,0.003267113585025072,0.0020381445065140724
1702338776356233700,102.23823364257812,-0.00041787861846387386,-0.0018812624039128423,-0.004236951470375061
1702338776456911000,102.3389111328125,-0.0029191398061811924,0.00020938218221999705,0.0015475171385332942
1702338777262575400,103.14457543945312,0.00022455751604866236,-0.003326009027659893,0.0010392713593319058
1702338777363313700,103.24531372070312,-0.0030449372716248035,0.002485487377271056,-0.0035861595533788204
1702338777463991300,103.3459912109375,-0.004780994262546301,0.0001447081594960764,-0.002745745237916708
1702338777564699100,103.44669921875,0.004210693296045065,-0.0029215426184237003,0.0032799625769257545
1702338777665407200,103.5474072265625,0.004974610637873411,-0.0006253242609091103,0.0027991831302642822
1702338777766145800,103.64814575195312,0.0020045966375619173,-0.0042352136224508286,0.00249519944190979
1702338777866823200,103.7488232421875,-0.003588128136470914,0.0036138969007879496,-0.0011179876746609807
1702338777967531300,103.84953125,0.0022285121958702803,-0.0014436778146773577,-0.003547708736732602
1702338778068239400,103.9502392578125,-0.0038404546212404966,0.0019973928574472666,0.001404818263836205
1702338778168947200,104.050947265625,0.0007858383469283581,-0.0016991406446322799,0.002290781121701002
1702338778269655300,104.1516552734375,0.002394086681306362,0.002082045190036297,-0.0025892960838973522
1702338778370363400,104.25236328125,-0.0022933443542569876,-0.003227036679163575,-0.0020949062891304493
1702338778471071200,104.3530712890625,-0.0002601015439722687,0.002482023322954774,0.000957562355324626
1702338778571779300,104.453779296875,0.00420547416433692,-0.0039005985017865896,-0.002016819780692458
1702338778672487400,104.5544873046875,0.0040148841217160225,-0.002653476782143116,0.0035430663265287876
1702338778773195300,104.6551953125,0.002516768639907241,-0.002968811197206378,0.0007977259228937328
1702338778873903400,104.7559033203125,0.00018647193792276084,-0.004013171885162592,-0.0004610225441865623
1702338778974611500,104.85661157226562,0.0020901148673146963,0.003945269156247377,-0.0014834176981821656
1702338779075319300,104.9573193359375,0.0005343913799151778,0.0035425107926130295,-0.0012663186062127352
1702338779176057900,105.05805786132812,-0.0030555371195077896,0.0005265468498691916,-0.0044660246931016445
1702338779276827000,105.15882690429687,-0.00026765017537400126,-0.0022647192236036062,0.0016321963630616665
1702338779377535000,105.25953491210937,0.003315357491374016,0.0022687185555696487,0.004223079886287451
1702338779478212400,105.36021240234375,-0.0037110333796590567,-0.0016118106432259083,-0.0029034328181296587
1702338779578951000,105.46095092773437,0.001976205036044121,-0.0015246841358020902,0.004505779128521681
1702338779679659000,105.56165893554687,0.003342186100780964,-0.0034104669466614723,0.0016475021839141846
1702338779780336400,105.66233642578125,0.0035449874121695757,-0.0034670187160372734,0.0025494920555502176
1702338779881044500,105.76304443359375,-0.0013994217151775956,-0.0016438731690868735,-0.0038371204864233732
1702338779981752600,105.86375268554687,0.0043461378663778305,-0.000966742925811559,-0.001955438172444701
1702338780082460400,105.96446044921875,-0.0037730452604591846,0.0036246657837182283,0.0021332399919629097
1702338780183168500,106.06516845703125,-0.0009445681935176253,0.0008493518689647317,0.003933228086680174
1702338780283876600,106.16587670898437,-0.000006701350230287062,0.0014689975650981069,0.0030515522230416536
1702338780384615000,106.26661499023437,0.004664853680878878,0.001101793022826314,-0.0020098795648664236
1702338780485292500,106.36729248046875,-0.004896080587059259,-0.003226883476600051,0.004599174950271845
1702338780586031000,106.46803100585937,-0.0018549433443695307,0.003547433065250516,0.004435656126588583
1702338780686708500,106.56870849609375,-0.0017963647842407227,0.003904584562405944,0.004341817926615477
1702338781089510100,106.97151025390625,-0.000055201649956870824,-0.004542273003607988,0.0027336382772773504
1702338781190218000,107.07221801757812,-0.002510919002816081,-0.002194537315517664,0.0031966979149729013
1702338781290956500,107.17295654296875,0.0022569196298718452,0.002765268087387085,-0.004714989103376865
1702338781391786800,107.27378686523437,-0.004463529214262962,-0.0017421323573216796,0.0001497435587225482
1702338781492372500,107.37437255859375,-0.0016062393551692367,-0.001064026029780507,0.004831243306398392
1702338781593111000,107.47511108398437,0.002590828575193882,-0.004126440733671188,0.003513411385938525
1702338781693788700,107.57578857421875,-0.003069298341870308,-0.003956476226449013,-0.00464821420609951
1702338781794496500,107.67649658203125,0.0024804449640214443,0.0038437671028077602,0.004284639842808247
1702338781895228700,107.77722875976562,0.000316413032123819,0.004792117513716221,-0.0018407574389129877
1702338781995906300,107.87790625,-0.004794103093445301,0.0006781548145227134,-0.00036915182135999203
1702338782096614400,107.97861450195313,-0.002390756504610181,-0.0017402246594429016,0.00033660471672192216
1702338782197322200,108.079322265625,0.0032389522530138493,0.001206381362862885,-0.002869813935831189
1702338782298030300,108.1800302734375,0.002709722612053156,-0.002022690372541547,0.001068094396032393
1702338782398738400,108.28073852539063,0.0036539346911013126,0.0006292319158092141,-0.00345050566829741
1702338782499476700,108.38147680664062,0.002108664019033313,-0.0006487930077128112,0.0031828498467803
1702338782600124000,108.4821240234375,0.002261885441839695,-0.0040046353824436665,-0.004903441295027733
1702338782700862200,108.5828623046875,0.0016475480515509844,0.000682224053889513,0.002104797400534153
1702338782801570300,108.6835703125,0.0006341963890008628,0.003924937453120947,-0.0038827883545309305
1702338783103694300,108.9856943359375,0.00450248783454299,0.004639110527932644,-0.0028743005823343992
1702338783204341200,109.08634130859375,0.0031734430231153965,-0.0007517313933931291,-0.0009096714784391224
1702338783305110300,109.1871103515625,-0.003006541635841131,0.0035569388419389725,0.0007866746163927019
1702338783405788000,109.28778784179687,0.0008863199036568403,0.0020136500243097544,-0.0036240804474800825
1702338783506526500,109.3885263671875,0.002256878651678562,-0.0006881511071696877,0.004783602897077799
1702338783607234300,109.489234375,0.0006690734880976379,-0.0017066007712855935,0.0013469434343278408
1702338783707942400,109.5899423828125,-0.002640392165631056,-0.0014502006815746427,0.0013096588663756847
1702338783808864000,109.69086401367187,0.00012229860294610262,0.0001630401675356552,0.0043458836153149605
1702338783909389000,109.79138916015626,-0.004931679926812649,0.0026671309024095535,0.0036745185498148203
1702338784010066400,109.89206640625,0.004297771956771612,0.0036557000130414963,-0.0029625725001096725
1702338784110805000,109.99280493164062,0.00193311576731503,-0.00008986890316009521,0.0007687825127504766
1702338784211513000,110.09351318359376,-0.00482224952429533,-0.0007245513843372464,-0.00044458836782723665
1702338784312190500,110.1941904296875,-0.0011969942133873701,0.0006022000452503562,0.004087767098098993
1702338784412898600,110.29489868164063,0.0004612529301084578,0.003187638008967042,0.004096314311027527
1702338784513606400,110.3956064453125,-0.004393558017909527,-0.003887725528329611,0.0022865927312523127
1702338784614314500,110.496314453125,0.002701888093724847,-0.00034321428393013775,-0.0019200006499886513
1702338784715053000,110.59705297851562,-0.001068335142917931,0.002125063445419073,0.00010155439667869359
1702338784815730400,110.69773046875,-0.0021725052502006292,0.0005576395778916776,0.001746608642861247
1702338784916469000,110.79846899414062,-0.003953613340854645,0.002407574560493231,0.0037913531996309757
1702338785621333500,111.50333349609375,0.004240504931658506,0.0015132117550820112,0.0036761516239494085
1702338785722072000,111.60407202148437,-0.0027671996504068375,0.004681428894400597,-0.004499084781855345
1702338785822749400,111.70474951171875,0.00420033885166049,0.00182416383177042,0.0005682879709638655
1702338785923457500,111.80545751953125,-0.0033861089032143354,-0.0037816367112100124,-0.003968092147260904
1702338786024196000,111.90619604492187,0.00039778591599315405,-0.0033956123515963554,-0.0013859957689419389
1702338786124873500,112.00687353515625,-0.002505721990019083,0.004180511925369501,-0.004933102987706661
1702338786225612000,112.10761206054687,-0.0006825599120929837,-0.000570543110370636,0.004521129187196493
1702338786326289700,112.20828955078125,-0.0003316453075967729,0.004730576649308205,-0.0021032351069152355
1702338786426997500,112.30899755859375,-0.0005121132708154619,-0.004746131598949432,0.0027922613080590963
1702338786527705600,112.40970556640625,0.003275936236605048,-0.004187954124063253,0.0031446588691323996
1702338786628413700,112.51041357421875,-0.00017960280820261687,-0.0006898588035255671,0.003464384702965617
1702338786729152300,112.61115234375,0.003453682642430067,-0.004966885782778263,0.0033132738899439573
1702338786829829600,112.71182958984375,0.001980485860258341,-0.0022014877758920193,0.004570400342345238
1702338786930537700,112.81253784179688,-0.0013754656538367271,0.00024028122425079346,-0.004590950440615416
1702338787031245600,112.91324560546875,0.0036753707099705935,-0.0020991137716919184,0.0012593049323186278
1702338787131953700,113.01395361328125,-0.0016342768212780356,0.0012093877885490656,0.0019952189177274704
1702338787232661800,113.11466186523438,-0.004771676380187273,0.0013466727687045932,0.0013898891629651189
1702338787333369600,113.21536962890625,-0.003678205655887723,0.0015507512725889683,-0.0018990376265719533
1702338787434077700,113.31607763671875,0.001004782970994711,-0.0032820741180330515,-0.002998556010425091
1702338788139033600,114.02103369140625,-0.001962073380127549,0.004461230244487524,0.0008778452756814659
1702338788239741700,114.12174169921875,-0.004153633955866098,-0.00014655083941761404,0.0016106951516121626
1702338788340449800,114.22244970703125,-0.00008738369069760665,-0.00035818785545416176,-0.0010091018630191684
1702338788441157600,114.32315771484375,-0.0020342099014669657,0.004287417978048325,-0.00032764405477792025
1702338788541865700,114.42386572265625,0.0011707657249644399,0.0022065252996981144,0.003922068979591131
1702338788642573800,114.52457373046875,-0.002681271405890584,-0.0023567499592900276,0.0015157681191340089
1702338788743281700,114.62528173828125,0.00251328875310719,-0.0022348302882164717,0.0035387242678552866
1702338788843989800,114.72598974609375,0.00036909221671521664,0.003449490759521723,-0.0007931584259495139
1702338788944697900,114.82669775390625,-0.001029047416523099,0.0027523559983819723,0.0023913478944450617
1702338789045436400,114.9274365234375,0.003461468266323209,-0.0010852590203285217,-0.0023724616039544344
1702338789146113800,115.02811376953125,-0.00010015934822149575,-0.0008941206615418196,-0.0039239064790308475
1702338789246852400,115.12885229492187,-0.00408963393419981,-0.004202815238386393,-0.0034481200855225325
1702338789347651800,115.22965185546875,-0.004928088281303644,-0.0029579857364296913,-0.004439579788595438
1702338789448237800,115.33023779296875,-0.004892200231552124,0.00006743431003997102,0.0013724613236263394
1702338789548946000,115.43094580078125,-0.0007129916339181364,-0.004547051154077053,0.00376117043197155
1702338789649653800,115.53165380859375,-0.004900834988802671,0.0025958670303225517,-0.00045011311885900795
1702338789750361900,115.63236181640625,0.000643051287624985,0.0003992175916209817,0.00021317959181033075
1702338789851070000,115.73307006835938,-0.00481400266289711,0.0031392592936754227,0.002531812759116292
1702338789951777800,115.83377783203125,-0.0011298793833702803,0.003772013820707798,-0.0035699743311852217
1702338790052486000,115.93448583984375,0.002459119074046612,-0.0004666888853535056,-0.002436876529827714
1702338790153255000,116.0352548828125,-0.00223180977627635,-0.0033645920921117067,-0.002859964966773987
1702338790253963000,116.135962890625,-0.0029785034712404013,0.0013864850625395775,0.0046257879585027695
1702338790354701600,116.23670166015626,0.003376415930688381,-0.0030023539438843727,0.00003639876740635373
1702338790455379000,116.33737890625,-0.0011382693191990256,-0.0020169697236269712,0.0018464082386344671
1702338790556087000,116.43808715820313,-0.003729100339114666,0.00006331503391265869,-0.0017451458843424916
1702338790656795000,116.538794921875,0.00014441668463405222,-0.0016386619536206126,0.004623653367161751
1702338790757533400,116.63953344726562,-0.004438990727066994,-0.002539918990805745,0.003524838015437126
1702338790858241500,116.74024145507812,-0.0014605495380237699,-0.0036181446630507708,-0.0010947281261906028
1702338790958949400,116.84094946289062,-0.002288985066115856,0.00022576093033421785,-0.0020855125039815903
1702338791059627000,116.941626953125,0.004340003710240126,-0.0007481854991056025,0.001029795384965837
1702338791160365600,117.04236547851562,0.0002688109816517681,0.004458997398614883,0.004263936076313257
1702338791261012500,117.14301245117187,0.0020977682434022427,-0.000876880600117147,-0.0002484074211679399
1702338791361781500,117.24378149414062,0.00023276447609532624,0.000632475595921278,0.004082796163856983
1702338791462459100,117.34445922851563,0.002014788333326578,0.003163017565384507,0.0026739274617284536
1702338791563167000,117.4451669921875,0.004410079214721918,-0.0032952618785202503,-0.002464073710143566
1702338791663875000,117.545875,0.00407590763643384,0.0027731782756745815,-0.0018441140418872237
1702338791764583000,117.6465830078125,0.004400892648845911,0.0010968160349875689,-0.004389569628983736
1702338794282251000,120.1642509765625,-0.0033033383078873158,-0.0032674544490873814,-0.0019395345589146018
1702338794382959000,120.264958984375,0.0032586019951850176,0.001846517901867628,0.0024557572323828936
1702338794483667000,120.3656669921875,-0.003564596874639392,-0.003807950299233198,-0.0010905885137617588
1702338794584253000,120.4662529296875,0.0038603455759584904,-0.0012839207192882895,-0.003661645343527198
1702338794685113600,120.56711352539062,-0.0015149194514378905,-0.004601137712597847,0.002992177614942193
1702338794785791000,120.667791015625,0.002042731735855341,0.0006289911107160151,0.0004037749895360321
1702338794886499000,120.7684990234375,-0.00388352177105844,-0.002796376356855035,0.003554042661562562
1702338794987207200,120.86920727539062,-0.0027886785101145506,0.0006848257617093623,-0.0007271304493770003
1702338795087945700,120.96994580078125,0.001625929493457079,0.0004562079848255962,0.0014766722451895475
1702338795188623000,121.070623046875,-0.0009174966835416853,0.0039019095711410046,-0.0010100496001541615
1702338795289361700,121.17136157226562,-0.003994443453848362,0.0009178596665151417,0.0017420590156689286
1702338795390039000,121.2720390625,-0.0012573502026498318,-0.0014586657052859664,0.0013792657991871238
1702338795490747100,121.3727470703125,0.0010046166134998202,0.0022893869318068027,-0.0021374679636210203
1702338795591455200,121.47345532226562,0.001103484071791172,-0.0015965879429131746,-0.0020111785270273685
1702338795692163000,121.5741630859375,0.0045413123443722725,0.004422211088240147,-0.0013593167532235384
1702338795792901600,121.67490161132812,0.00445677200332284,-0.0014821640215814114,-0.002964543644338846
1702338795893579300,121.77557934570312,-0.0012460830621421337,-0.0011118734255433083,-0.004907316993921995
1702338795994317600,121.87631762695312,0.0035889584105461836,0.0015355717623606324,-0.003321424126625061
1702338798008447200,123.890447265625,-0.0019531219732016325,-0.0018960029119625688,-0.004617718979716301
1702338798109155300,123.9911552734375,-0.00480357650667429,0.0024438106920570135,0.0009869784116744995
1702338799317651500,125.1996513671875,0.0005845373962074518,-0.004001148045063019,-0.0016598785296082497
1702338799418359600,125.30035961914062,0.0013830774696543813,0.0013958978233858943,0.0016076195752248168
1702338799519067400,125.4010673828125,0.00247481232509017,0.004547087475657463,-0.0031732397619634867
1702338799619775500,125.501775390625,-0.0023260745219886303,0.0031737000681459904,-0.0010728350607678294
1702338799720452900,125.60245288085937,-0.0008415505290031433,-0.0034969409462064505,-0.0014748710673302412
1702338799821222000,125.70322192382812,-0.0043332516215741634,0.004887523595243692,-0.004728203639388084
1702338799921899500,125.8038994140625,0.0024153483100235462,0.004289789125323296,0.0007916617323644459
1702338800022607400,125.904607421875,-0.0034837699495255947,-0.00249163038097322,-0.000013931691682955716
1702338800123346000,126.00534594726562,-0.0013810315867885947,-0.00016348063945770264,-0.0016952240839600563
1702338800224023600,126.1060234375,0.003187894821166992,-0.0008379110950045288,-0.0009908813517540693
1702338800324731400,126.2067314453125,-0.0026170783676207066,0.0035285651683807373,0.001878840965218842
1702338800425439500,126.307439453125,0.0033502085134387016,-0.0023062843829393387,0.0008905488066375256
1702338800526147600,126.40814770507812,0.004358548671007156,-0.0023824996314942837,0.004818371497094631
1702338800626855400,126.50885546875,0.003984362352639437,0.0032005547545850277,0.0002791160368360579
1702338800727563500,126.6095634765625,-0.004948613233864307,-0.002568725263699889,0.002018964383751154
1702338800828271600,126.71027172851562,-0.0008429032750427723,-0.0016904735239222646,-0.004383412189781666
1702338800929132000,126.81113208007812,0.004420451354235411,0.002603103406727314,-0.0009067016653716564
1702338801029718000,126.91171801757812,-0.0040345401503145695,0.0019928312394768,-0.0039252969436347485
1702338801130456600,127.01245654296875,-0.000847491028252989,-0.0047960649244487286,0.0038577031809836626
1702338801231164700,127.11316455078125,-0.0029771619010716677,-0.0021674083545804024,-0.0006329300813376904
1702338801331872500,127.21387255859375,0.001532781170681119,0.0033964805770665407,-0.0027001018170267344
1702338801432611000,127.31461108398437,0.0006729888846166432,-0.0048617045395076275,0.0018542218022048473
1702338801533288700,127.41528881835937,0.00033830522443167865,-0.0028936557937413454,-0.0034516146406531334
1702338801633996500,127.51599658203125,-0.0005369320278987288,0.0016363752074539661,-0.001301575917750597
1702338801734704600,127.61670458984375,0.0017002505483105779,-0.003982272930443287,-0.0032131916377693415
1702338801835443200,127.71744311523437,0.0033482767175883055,0.0026380920317023993,-0.000276094680884853
1702338801936120600,127.81812060546875,0.0021465569734573364,-0.004077973309904337,0.0031585406977683306
1702338802036859100,127.91885913085937,0.0025350963696837425,-0.00021664082305505872,0.0016189801972359419
1702338802137536800,128.0195368652344,0.0018671256257221103,-0.0013032284332439303,0.004578705411404371
1702338802238275300,128.120275390625,0.003467491827905178,0.002669376088306308,-0.0023566391319036484
1702338802338922200,128.22092211914062,0.0009543782216496766,-0.004061010666191578,-0.0022502965293824673
1702338802439782700,128.32178271484375,-0.0034529149997979403,0.0032416265457868576,0.0018421667627990246
1702338802540368600,128.42236865234375,-0.004606097936630249,-0.0015471940860152245,-0.0036256045568734407
1702338802641076700,128.52307666015625,0.004701631609350443,-0.0027570445090532303,0.00068855524295941
1702338802741784800,128.6237849121094,0.0014774734154343605,0.0000132888553707744,0.002331213327124715
1702338802842523100,128.72452319335937,-0.0013011667178943753,-0.0038242691662162542,-0.003636631416156888
1702338802943231200,128.82523120117187,-0.000628260662779212,-0.002396275755017996,-0.002641801256686449
1702338803043908900,128.9259089355469,0.0021516489796340466,-0.0005141356377862394,-0.0012127470690757036
1702338805561532700,131.44353271484374,-0.0017573174554854631,-0.00003691166784847155,-0.003298875642940402
1702338805662240800,131.54424072265624,0.0003330361796543002,-0.004589912481606007,0.001694918260909617
1702338806065072600,131.94707275390624,-0.0009868144989013672,0.000028361082513583824,-0.0012494039256125689
1702338806165780700,132.04778076171874,-0.0031374639365822077,0.0005750214913859963,-0.003908960148692131
1702338806266519300,132.14851928710937,-0.0024164807982742786,0.0011766398092731833,-0.003766212146729231
1702338806367166200,132.24916625976562,0.004876064136624336,0.0030858046375215054,-0.004188372287899256
1702338806467904800,132.34990478515624,-0.001660410431213677,-0.002902812324464321,-0.0008575108367949724
1702338806568643300,132.45064331054687,0.0043427227064967155,-0.001531057059764862,-0.00358085660263896
1702338806669351200,132.55135107421876,0.004756202921271324,-0.0011676832800731063,-0.0012142106425017118
1702338806770028800,132.65202880859374,-0.0029915529303252697,0.004105093888938427,-0.0037106317467987537
1702338806870737000,132.75273681640624,0.001036164816468954,-0.0034927588421851397,0.00006497681170003489
1702338806971444700,132.85344482421874,-0.00015693128807470202,-0.0021634141448885202,0.0023421484511345625
1702338807072244200,132.954244140625,-0.003648090874776244,-0.0014912399929016829,0.0013525407994166017
1702338807172952300,133.05495239257812,-0.0008882135152816772,-0.00012949586380273104,-0.004502499010413885
1702338807273660400,133.15566040039062,0.00039221823681145906,0.0014257091097533703,-0.004440110642462969
1702338807374337800,133.256337890625,-0.0021469383500516415,-0.0018599602626636624,0.003292414592579007
1702338807475046000,133.3570458984375,0.000033229589462280273,-0.001319010858424008,0.002608163980767131
1702338807575754000,133.45775390625,-0.001350300619378686,-0.0044697923585772514,0.00006682157254545018
1702338807676461800,133.5584619140625,0.003111087717115879,0.003150610253214836,0.001144644571468234
1702338808079263500,133.96126342773437,0.004734592512249947,-0.004627110902220011,-0.0016310956561937928
1702338808179971300,134.06197143554687,-0.0008622375316917896,0.0017517585074529052,-0.004521104507148266
1702338808280740400,134.162740234375,-0.00009574591967975721,0.004870417062193155,0.003177371108904481
1702338808381418000,134.26341796875,0.00463461596518755,-0.0008590120123699307,0.002859877422451973
1702338808482125800,134.36412573242188,0.001262172474525869,-0.0015582594787701964,-0.0021392046473920345
1702338808582864400,134.46486450195312,-0.004396743141114712,0.0038150358013808727,-0.004233104642480612
1702338808683542000,134.5655419921875,-0.0021007531322538853,0.0013454848667606711,0.0009523594635538757
1702338808784280600,134.66628051757812,0.00447877449914813,-0.0003815028176177293,-0.002689821645617485
1702338808884958000,134.7669580078125,-0.0021941885352134705,0.0013239377876743674,0.0013608861481770873
1702338808985696500,134.86769653320312,0.004844412673264742,-0.004846494644880295,0.0022818082943558693
1702338809086374000,134.96837377929688,-0.00302588171325624,0.000965113053098321,-0.0041397325694561005
1702338809187082000,135.06908203125,0.0009499305742792785,0.0037053502164781094,0.0007653397042304277
1702338809287790000,135.1697900390625,-0.0007406928925774992,0.002411577617749572,0.00198550708591938
1702338809388498000,135.27049780273438,-0.004786299075931311,-0.0008391120936721563,-0.001513555645942688
1702338810194101000,136.07610107421874,0.00025159239885397255,0.0037664491683244705,0.003457847749814391
1702338810294809000,136.17680908203124,0.0018835061928257346,0.0029631019569933414,0.00481392489746213
1702338810395517000,136.27751684570313,0.0007017272873781621,-0.0011984276352450252,-0.00007336080307140946
1702338810496225000,136.37822509765624,-0.0018122303299605846,-0.0020101473201066256,0.0014511400368064642
1702338810596933000,136.47893310546874,-0.003897920250892639,0.0006959891179576516,0.0005330467247404158
1702338810697641000,136.57964086914063,0.0022185463458299637,-0.004899583291262388,0.003529761452227831
1702338810798349000,136.68034912109374,-0.0026317720767110586,0.0034825748298317194,0.0003978264285251498
1702338810899057200,136.78105712890624,0.0016283118166029453,-0.0008812406449578702,0.000049908161599887535
1702338810999765000,136.88176489257813,-0.004333429969847202,0.002068439731374383,0.0038141340482980013
1702338811100473000,136.98247314453124,-0.0007789757801219821,0.000026500820240471512,-0.0026195847894996405
1702338811201211600,137.08321166992187,0.0032926411367952824,0.00019770264043472707,0.002241723006591201
1702338811301889000,137.18388891601563,-0.004236570559442043,-0.0016147217247635126,0.00458097830414772
1702338811402597000,137.28459716796874,-0.0014782017096877098,0.0022586756385862827,-0.004733437206596136
1702338811503305200,137.38530517578124,0.0044350712560117245,0.000596516125369817,-0.0002773797605186701
1702338811604013000,137.48601293945313,-0.002501461422070861,0.0006090092938393354,-0.0013558738864958286
1702338811704721200,137.58672119140624,-0.0013404476922005415,-0.0036131704691797495,-0.0006155583541840315
1702338811805429200,137.68742919921874,0.0012052959064021707,-0.001316914800554514,-0.003150366013869643
1702338811906137000,137.78813720703124,0.004265172407031059,0.002526035998016596,0.0021143651101738214
1702338812409707800,138.29170776367187,0.004060726147145033,-0.0015559226740151644,-0.00017508566088508815
1702338812510415600,138.39241552734376,0.0038565618451684713,0.002896228339523077,0.004097551107406616
1702338812611123700,138.49312377929687,0.004293641075491905,-0.0012975845020264387,-0.00017300844774581492
1702338812711801300,138.59380126953124,0.0030707805417478085,0.0002095061499858275,-0.0010695820674300194
1702338812812570400,138.6945703125,-0.002593190409243107,0.00024149894306901842,-0.00011144906602567062
1702338812913278200,138.7952783203125,0.003666901495307684,-0.0013763197930529714,-0.00044874518061988056
1702338813014016800,138.89601684570312,-0.0016393497353419662,-0.0008483693236485124,-0.002675122581422329
1702338813114694400,138.9966943359375,-0.0009387526079080999,0.0019912379793822765,0.0002173560787923634
1702338813215432700,139.0974326171875,0.00021107852808199823,-0.0023405314423143864,-0.001591480104252696
1702338813316110300,139.1981103515625,-0.002855577738955617,0.003302130615338683,-0.0015534523408859968
1702338813416818400,139.298818359375,0.004945425316691399,-0.0023880810476839542,-0.001307459780946374
1702338813517526300,139.3995263671875,-0.0028023850172758102,0.002805974567309022,0.0005745232338085771
1702338813618234400,139.500234375,-0.0010133287869393826,0.0015992831904441118,-0.0044289203360676765
1702338813718973000,139.60097290039062,-0.0021765611600130796,0.00015470624202862382,-0.001991047291085124
1702338813819650300,139.701650390625,-0.004699270240962505,-0.0003365311131346971,0.0030616659205406904
1702338813920394500,139.80239453125,-0.00022070258273743093,-0.0033881671261042356,0.0019381535239517689
1702338814021072000,139.90307177734374,-0.0019992832094430923,0.00011742055357899517,-0.00171779899392277
1702338814927383000,140.80938305664063,0.0018770009046420455,-0.0034919127356261015,-0.0029175591189414263
1702338815028091000,140.9100908203125,-0.0010792204411700368,0.0027676851022988558,-0.004561273381114006
1702338815128799000,141.01079907226563,0.00023862242233008146,-0.0019243389833718538,-0.0005281001213006675
1702338815229507000,141.11150708007813,-0.004328124690800905,0.003140512155368924,-0.0037011217791587114
1702338815330215000,141.21221484375,-0.0032361731864511967,-0.0012633514124900103,0.004471602849662304
1702338815430923000,141.31292309570313,-0.002324523404240608,0.00430667819455266,-0.002392030321061611
1702338815531630800,141.413630859375,0.003201389918103814,0.004819523077458143,0.002931466791778803
1702338815632369400,141.51436938476562,-0.004909254144877195,0.004021153319627047,0.000112366076791659
1702338815733077500,141.61507739257812,-0.0021483777090907097,0.004816719330847263,0.0049805231392383575
1702338815833755000,141.7157548828125,0.001086859731003642,0.0002656066499184817,0.0009028249769471586
1702338815934463000,141.816462890625,0.0023062515538185835,-0.0029201318975538015,0.003891095519065857
1702338816035171000,141.91717114257813,-0.0012245384277775884,0.003951829858124256,0.003999999258667231
1702338816135879000,142.01787890625,0.004416667856276035,-0.004370027221739292,-0.00209803762845695
1702338816236587000,142.1185869140625,0.00471428083255887,0.004364830441772938,0.0014893901534378529
1702338816337295000,142.21929516601563,0.00010361253953306004,0.0038733421824872494,-0.003495807759463787
1702338816438003000,142.3200029296875,0.0008633130928501487,0.0023795003071427345,0.001578636816702783
1702338816538711000,142.4207109375,0.004635217133909464,0.003775655059143901,0.004558301530778408
1702338817042312200,142.92431225585938,-0.0008882969850674272,-0.0002490291080903262,0.0026224805042147636
1702338817143020000,143.02502001953124,0.004994666203856468,-0.0049301860854029655,-0.0012153243878856301
1702338817243728100,143.12572802734374,0.004251642152667046,-0.003966475836932659,-0.00251380680128932
1702338817344436200,143.22643627929688,0.003061668248847127,-0.004908059723675251,0.003778979182243347
1702338817445113600,143.32711352539062,-0.000320641091093421,0.003100820118561387,0.0015080088051036
1702338817545852200,143.42785205078124,-0.0032682931050658226,-0.00032220722641795874,0.002844765782356262
1702338817646560300,143.52856030273438,-0.004608937073498964,-0.0026103584095835686,0.0007192182820290327
1702338817747268000,143.62926806640624,-0.0015658193733543158,0.00288472231477499,0.0020004326943308115
1702338817847976200,143.72997607421874,0.003985573537647724,-0.0004134163318667561,-0.0001303145254496485
1702338817948684300,143.83068432617188,0.0017509699100628495,-0.000347791617969051,-0.004154882859438658
1702338818049514200,143.93151416015624,0.003976442851126194,-0.0008323013898916543,-0.0017880472587421536
1702338818150130700,144.03213061523437,0.0029153358191251755,-0.004616790451109409,0.0014024025294929743
1702338818250838800,144.1328388671875,-0.0004096001503057778,0.0026970559265464544,0.0022707772441208363
1702338818351546600,144.23354663085937,0.0027804882265627384,0.00010198235395364463,-0.003798759076744318
1702338818452193800,144.33419384765625,0.0035232962109148502,-0.001744452747516334,-0.0013762247981503606
1702338818552962800,144.434962890625,0.0024917160626500845,0.0031284308061003685,0.0016497093020007014
1702338818653640200,144.53564013671874,-0.0013990690931677818,-0.0003304550191387534,0.0012286811834201217
1702338818754378800,144.63637866210937,0.003273563925176859,-0.004345191176980734,-0.003705834737047553
1702338822077651500,147.9596513671875,-0.0021787392906844616,0.0016630649333819747,0.0008056938531808555
1702338822178359600,148.06035961914063,0.0033336335327476263,-0.0036250888369977474,-0.0031897746957838535
1702338822279067400,148.1610673828125,-0.004720126278698444,-0.001766997273080051,0.0032348250970244408
1702338822379775500,148.261775390625,-0.004550616256892681,-0.004750565625727177,0.0048773642629384995
1702338822480483600,148.36248364257813,0.0019514965824782848,0.0017760550836101174,0.00409587100148201
1702338822581191400,148.46319140625,0.0017665886553004384,-0.002087966538965702,0.004737998358905315
1702338822681899500,148.5638994140625,-0.0032263859175145626,-0.0026565270964056253,-0.0024128907825797796
1702338822782607600,148.66460766601563,-0.002436951734125614,0.004621979780495167,0.003607644932344556
1702338822883315500,148.7653154296875,0.0036780000664293766,-0.0011096999514847994,-0.0012229105923324823
1702338822984023600,148.8660234375,-0.0030144474003463984,-0.0026237911079078913,-0.0007789900992065668
1702338823084731600,148.96673168945313,-0.0045847343280911446,0.003439444350078702,0.0025392770767211914
1702338823185439500,149.067439453125,0.001700214110314846,-0.0014457604847848415,-0.00078435183968395
1702338823286147600,149.16814770507813,0.004560674540698528,-0.004089524503797293,0.0013856333680450916
1702338823386855700,149.26885571289063,-0.0012191298883408308,0.0006506759091280401,-0.0021277652122080326
1702338823487563500,149.3695634765625,-0.0012796112569049,-0.0012614465085789561,0.0009044504258781672
1702338823588271600,149.47027172851563,0.0021412742789834738,-0.0035381049383431673,0.0015205085510388017
1702338823689040600,149.57104052734374,-0.00006927669164724648,-0.0032959762029349804,0.0015288001159206033
1702338823789779200,149.671779296875,0.001298429910093546,0.00018253803136758506,0.0011398184578865767
1702338823890426000,149.77242602539062,0.003682368900626898,0.003899312112480402,0.0022337199188768864
1702338823991134200,149.87313427734375,0.0008672058465890586,0.004896954167634249,-0.0017889646114781499
1702338824091842000,149.97384204101562,0.0021247637923806906,0.0048951152712106705,0.0010212111519649625
1702338824192580600,150.07458056640624,0.0011308235116302967,-0.0044610402546823025,-0.003186892019584775
1702338824293288700,150.17528881835938,-0.002083370927721262,0.003412771737203002,0.0002876138605643064
1702338824393996800,150.27599682617188,0.0020219599828124046,0.0017569970805197954,-0.003071579849347472
1702338824494704600,150.37670458984374,-0.0006752171902917325,-0.003923487849533558,0.0037990938872098923
1702338824595443200,150.47744311523437,-0.0030878018587827682,0.003073002677410841,-0.003302954835817218
1702338824696151300,150.5781513671875,0.0006609201664105058,0.004325385205447674,0.00020808220142498612
1702338824796828700,150.67882861328124,-0.0041422490030527115,-0.0031964147929102182,-0.004631625488400459
1702338824897560800,150.77956079101563,0.002904838416725397,-0.0014902756083756685,0.001207526307553053
1702338824998238500,150.88023852539064,-0.003587770974263549,0.002726614475250244,-0.004064910113811493
1702338825098946300,150.9809462890625,-0.0037568253464996815,-0.0043428512290120125,0.0006118714809417725
1702338825199654400,151.081654296875,0.0008369809365831316,-0.004336748272180557,0.001649969257414341
1702338828321541600,154.2035417480469,0.004733148030936718,-0.0008453372283838689,0.0007097256020642817
1702338828422371600,154.30437158203125,-0.0018000355921685696,0.00028978465707041323,-0.0021350232418626547
1702338828522957600,154.40495751953125,0.003430088749155402,0.00214980891905725,0.0006014406681060791
1702338828623665700,154.5056657714844,0.003249767469242215,0.0035655624233186245,-0.004671882372349501
1702338828724373500,154.60637353515625,0.00175269425380975,-0.002385661005973816,0.003053336637094617
1702338828825081600,154.70708154296875,-0.004866087809205055,-0.001489400863647461,-0.004434991627931595
1702338828925789700,154.8077897949219,-0.00210554338991642,-0.0032873176969587803,-0.004247960168868303
1702338829026497500,154.90849755859375,-0.0007716089603491127,0.000009513497388979886,0.001730438438244164
1702338829127205600,155.00920556640625,-0.00011931687913602218,-0.001378884306177497,0.00224148272536695
1702338829227913700,155.1099138183594,-0.004487474914640188,0.004208230879157782,-0.0047663357108831406
1702338829328652300,155.21065234375,-0.004796396475285292,-0.0041226577013731,-0.0018935617990791798
1702338829429329700,155.31132958984375,0.0041702426970005035,0.0009412312647327781,0.0022187428548932076
1702338829530037800,155.4120378417969,0.003137162420898676,0.0027416693046689034,0.0022370105143636465
1702338829630745600,155.51274560546875,0.004100352991372347,0.004533241502940655,0.0004560613597277552
1702338829731453700,155.61345361328125,0.00456878961995244,-0.003221922554075718,-0.0031091796699911356
1702338829832161800,155.7141618652344,0.00013850032701157033,0.0011425107950344682,-0.0011482849949970841
1702338829932869600,155.81486962890625,-0.0031102076172828674,0.0014745271764695644,0.0013051617424935102
1702338830033577700,155.91557763671875,-0.00038145840517245233,0.0023287194781005383,-0.002622851636260748
1702338832047737900,157.92973779296875,0.0011641745222732425,-0.000013705395758734085,0.000030508448617183603
1702338836076058000,161.95805810546875,0.005738188978284597,-0.000007276047654158901,0.000019614170014392585
1702338836176766200,162.05876611328125,-0.11517496407032013,-0.0009104940691031516,-0.0001770102244336158
1702338836277474300,162.1594743652344,-0.01365660224109888,-0.00015141464245971292,0.000697218521963805
1702338836378334700,162.26033471679688,-0.1612861603498459,0.004490528255701065,0.003187202150002122
1702338836478890200,162.36089013671875,0.014566587284207344,-0.0004725698963738978,-0.00004200649345875718
1702338836579598300,162.4615983886719,0.000054740517953177914,-0.0000017740101156960009,-2.3570947860207525e-7
1702338836680306200,162.56230615234375,0.004021177999675274,0.0004415494331624359,0.004834174644201994
1702338836781014300,162.66301416015625,-0.0012466571060940623,-0.0004512283194344491,-0.0007298472337424755
1702338836881722400,162.7637224121094,-0.0006995555595494807,0.004676913842558861,-0.004136962816119194
1702338836982460700,162.86446069335938,0.19869175553321838,0.0007842113845981658,0.0015211820136755705
1702338837083138300,162.96513818359375,-0.029215360060334206,0.0009839112171903253,-0.0013542590895667672
1702338837183846400,163.0658464355469,-0.14094218611717224,0.001476249541155994,-0.000999707030132413
1702338837284554200,163.16655419921875,-0.06287257373332977,-0.0008815641049295664,0.0012458752607926726
1702338837385262300,163.2672624511719,-0.0006270638550631702,-0.000015540304957539774,0.00001581146898388397
1702338837485970200,163.36797021484375,-7.406376880680909e-7,-1.8354963771116672e-8,1.8675240909260538e-8
1702338837586708700,163.46870874023438,0.0031327384058386087,0.0030408138409256935,-0.0026433460880070925
1702338844736991000,170.61899096679687,0.0043303775601089,-0.0005957132671028376,-0.00446687638759613
1702338844837668600,170.71966870117188,-0.0017920885002240539,-0.0031122576911002398,-0.00450628949329257
1702338844938376400,170.82037646484375,-0.004532631486654282,0.0036165702622383833,0.0009917676215991378
1702338845039084500,170.92108447265625,-0.0006994810537435114,-0.0008904042770154774,0.0010465729283168912
1702338845139823000,171.02182299804687,0.015619823709130287,0.000018209342670161277,-0.0002762929070740938
1702338845240500500,171.12250048828125,0.00040836926200427115,9.996637118092622e-7,-0.00000896290748642059
1702338845341208600,171.22320849609375,-0.00007964223914314061,-0.004516585264354944,0.0026886845007538795
1702338845441916700,171.32391674804688,0.0015932697569951415,0.0015779989771544933,-0.004365114029496908
1702338845542655000,171.42465502929687,-0.004178924486041069,0.00046396016841754317,0.0001601469557499513
1702338845643332600,171.52533251953125,0.0022063152864575386,0.0018918645801022649,-0.00002067714922304731
1702338845744040700,171.62604077148438,-0.003479799721390009,-0.0017139374976977706,0.0008074885699898005
1702338846146872600,172.02887255859375,0.0037380147259682417,-0.004746043588966131,-0.0034342515282332897
1702338846247550200,172.12955029296876,-0.0017848456045612693,0.00027631939155980945,-0.0006848776247352362
1702338846348288500,172.23028857421875,-0.00006391316856024787,0.004427294712513685,-0.0037588938139379025
1702338846448996600,172.33099658203125,-0.003126602852717042,0.0031513094436377287,-0.0038836330641061068
1702338846549704700,172.43170458984375,0.001095775980502367,-0.0034374448005110025,-0.003874654183164239
1702338846650412500,172.53241259765625,0.004443097859621048,-0.0008206907077692449,-0.0004572272300720215
1702338846751151000,172.63315112304687,-0.00435111578553915,-0.0030928372871130705,-0.003651324426755309
1702338846851859200,172.73385913085937,-0.0015170058468356729,-0.0034764455631375313,-0.0008104965090751648
1702338846952567300,172.8345673828125,-0.003848283551633358,-0.001048120902851224,0.002095853677019477
1702338847053336300,172.93533642578126,0.004408467561006546,0.0036043256986886263,-0.000024785102141322568
1702338847154013700,173.036013671875,-0.0016053712461143732,0.0009369683102704585,-0.00028503776411525905
1702338847254721800,173.1367216796875,0.004958780016750097,0.0027180910110473633,-0.0007494619349017739
1702338847355460400,173.23746044921876,0.002546055242419243,0.004623739514499903,-0.0005872133187949657
1702338847456168200,173.33816821289062,-0.0020695668645203114,0.00237301760353148,0.0032315957359969616
1702338847556876300,173.43887622070312,-0.002741066738963127,-0.003586475271731615,0.004021801985800266
1702338847657584400,173.53958447265626,-0.00126753153745085,0.003940849099308252,-0.0026847601402550936
1702338847758261800,173.64026171875,-0.001971511635929346,-0.004441423807293177,-0.0019932142458856106
1702338847858969900,173.74096997070313,-0.002024279907345772,-0.003939053043723106,-0.002937456127256155
1702338847959708400,173.84170849609376,0.0029199726413935423,0.0044310856610536575,-0.003231869312003255
1702338848060385800,173.9423857421875,0.0014947158051654696,0.0024207390379160643,0.004987102001905441
1702338848161094000,174.04309399414063,-0.0010208833264186978,-0.0015763298142701387,-0.00016099899949040264
1702338848261801700,174.1438017578125,-0.0012871390208601952,-0.0007922208169475198,0.003253697184845805
1702338848362509800,174.244509765625,-0.0022423306945711374,-0.0030327162239700556,0.0025756037794053555
1702338848463218000,174.34521801757813,-0.001048440346494317,0.0032945030834525824,0.0037155495956540108
1702338848563956500,174.44595654296876,-0.0030508243944495916,0.0034245604183524847,0.0024075203109532595
1702338848664633900,174.5466337890625,-0.00153475406114012,0.0007658523391000926,0.0022017520386725664
1702338848765342000,174.64734204101563,0.003457946702837944,-0.0023307271767407656,0.0002278315951116383
1702338848866049800,174.7480498046875,0.000025253892090404406,0.0028012681286782026,-0.0011644092155620456
1702338848966758000,174.8487578125,0.0005288219545036554,-0.001915631932206452,-0.0027573888655751944
1702338849067466000,174.94946606445313,0.004814069718122482,0.004673920106142759,-0.004697962198406458
1702338849168143400,175.05014331054687,-0.0015408534090965986,-0.0029260122682899237,0.004515280015766621
1702338849268882000,175.1508818359375,0.002525684889405966,-0.0023941388353705406,0.0031260508112609386
1702338849369620500,175.25162036132812,-0.0036349783185869455,0.0007672589854337275,-0.0026798539329320192
1702338849470297900,175.3522978515625,0.002577072475105524,0.0012786680599674582,0.0028124810196459293
1702338849571006000,175.453005859375,-0.003737350460141897,-0.00031413763645105064,-0.00218289066106081
1702338849671714000,175.55371411132813,0.00007099389767972752,-0.0023399125784635544,-0.004518082365393639
1702338849772452400,175.65445239257812,0.0025003915652632713,0.0005788672133348882,-0.0001640617847442627
1702338855210593300,181.09259326171875,-0.004274780862033367,-0.003218169789761305,0.003587801940739155
1702338855311271000,181.19327099609376,-0.001844573300331831,-0.003913982305675745,0.0012592673301696777
1702338855412009200,181.29400927734375,-0.00003755837678909302,-0.0010985898552462459,0.002323939697816968
1702338855512686800,181.39468676757812,0.00013316035619936883,-0.00031157134799286723,0.0026467174757272005
1702338855613425400,181.49542529296875,0.0038326054345816374,-0.004798453766852617,-0.0017597482074052095
1702338855714133200,181.59613330078125,0.00032531857141293585,-0.0021617466118186712,0.0002814906765706837
1702338855814841300,181.69684130859375,-0.003450976684689522,-0.0008643585606478155,-0.0016803229227662086
1702338855915549400,181.79754956054688,-0.004926576744765043,-0.00041525810956954956,0.0034065914805978537
1702338856016257300,181.89825732421875,0.0021178757306188345,0.0003986269293818623,0.004960543476045132
1702338856116965400,181.99896533203125,0.003974786028265953,-0.004864743445068598,-0.0004272723163012415
1702338856217673500,182.09967358398438,-0.004970123991370201,-0.001631102873943746,-0.0012769910972565413
1702338856318381300,182.20038134765625,0.004674476571381092,-0.0013601401587948203,-0.003299524774774909
1702338856419119900,182.30111987304687,-0.0010337791172787547,0.0005959886475466192,0.0033158748410642147
1702338856519797500,182.40179760742188,-0.002670863177627325,0.0013405013596639037,-0.0006593742873519659
1702338856620627500,182.50262744140625,-0.002612306969240308,0.004757667891681194,0.0033468282781541348
1702338856721244000,182.60324389648437,-0.004819358233362436,0.002094325376674533,0.0043138135224580765
1702338856821921500,182.70392163085938,-0.0017046305583789945,0.0037954109720885754,-0.0006899836589582264
1702338861051657700,186.93365771484375,0.026479659602046013,-0.0003195141034666449,-0.00025364235625602305
1702338861154410500,187.03641040039062,-0.09621651470661163,-0.002837070031091571,-0.00010373346594860777
1702338861253073700,187.13507373046875,0.10637207329273224,0.0015071306843310595,0.0004344088083598763
1702338861353781800,187.23578173828125,-0.11725293844938278,-0.002053361851722002,0.0012870609061792493
1702338861454489900,187.33648974609375,-0.011344848200678825,-0.00018210882262792438,0.0000958222517510876
1702338861555197700,187.43719775390625,-0.02480417862534523,-0.00015792407793924212,-0.00040047449874691665
1702338861655905800,187.53790576171875,0.001947436947375536,-0.004878665320575237,-0.004837581422179937
1702338861756614000,187.63861376953125,0.0029778797179460526,-0.00021621733321808279,-0.00462369155138731
1702338861857352400,187.7393525390625,-0.0020316406153142452,0.0037183398380875587,0.0034373372327536345
1702338861958060300,187.84006030273437,0.004583501257002354,0.0047967638820409775,-0.003952169790863991
1702338862058768400,187.94076831054687,-0.10807809233665466,0.000749523751437664,-0.00028718268731608987
1702338862159476500,188.0414765625,-0.020719656720757484,-0.001066282158717513,-0.00038490869337692857
1702338862260143400,188.14214331054689,0.004178904462605715,0.001313297194428742,-0.0017007869901135564
1702338862360851500,188.2428515625,-0.004120402038097382,-0.0017406749539077282,-0.0008902185945771635
1702338862461559600,188.3435595703125,-0.002808178775012493,0.0031877774745225906,0.0014201736776158214
1702338862562267400,188.44426733398439,-0.004973471164703369,-0.003637898014858365,-0.0012451293878257275
1702338956220649700,282.1026496582031,-1.4031331539154053,-2.8937630653381348,1.276281714439392
1702338956331489500,282.2134895019531,-1.2567662000656128,-2.830807685852051,0.617702305316925
1702338956432197400,282.314197265625,-0.30192631483078003,0.29700762033462524,-1.5703524351119995
1702338956532905500,282.4149055175781,-1.1194031238555908,0.7887446284294128,0.8580232858657837
1702338956633613600,282.5156135253906,-0.34930986166000366,0.8517239093780518,-1.110060691833496
1702338956734321400,282.6163212890625,0.5214549899101257,-0.12690182030200958,-0.4386676251888275
1702338956835029500,282.7170295410156,-0.2155124694108963,0.8667626976966858,-1.2494823932647705
1702338956935859700,282.8178596191406,0.588872492313385,0.2574442923069,-0.1707213819026947
1702338957036384500,282.91838452148437,-0.6392677426338196,1.2404396533966064,-0.2369568794965744
1702338957137153500,283.0191535644531,-0.3474242091178894,1.6082459688186646,0.7324106693267822
1702338957237861600,283.1198615722656,-0.12768356502056122,0.6505818963050842,0.26957637071609497
1702338957338569500,283.2205695800781,-1.1459773778915405,0.7953482866287231,-0.5165603756904602
1702338957439277600,283.3212775878906,-0.7240703701972961,0.12946650385856628,-0.2858877182006836
1702338957539985700,283.4219855957031,-0.7525177001953125,-0.1132466048002243,0.007504599168896675
1702338957640693500,283.5226936035156,-0.538597583770752,0.011371602304279804,-0.1423211246728897
1702338957741401600,283.6234016113281,-0.5249912738800049,0.10645586252212524,-0.026086311787366867
1702338957842109700,283.7241096191406,-0.33862629532814026,0.1061757430434227,0.08151058852672577
1702338957942848300,283.82484814453124,-0.5395652651786804,-0.1124771386384964,0.2363121211528778
1702338958043525600,283.9255256347656,-0.3311822712421417,-0.1982574313879013,0.3064945638179779
1702338958144233700,284.0262336425781,0.30704328417778015,0.057529158890247345,0.19557814300060272
1702338958244972000,284.12697192382814,-0.389428973197937,0.36520901322364807,0.013349738903343678
1702338958345680100,284.22768017578124,0.08229125291109085,0.3114593029022217,-0.1230877935886383
1702338958446388200,284.32838818359374,-0.49905580282211304,0.20880736410617828,0.19249869883060455
1702338958547096000,284.42909594726564,-0.19451913237571716,-0.1240047961473465,0.33040064573287964
