time,seconds_elapsed,z,y,x
1702338674372990500,0.254990478515625,9.782882690429688,-0.42901611328125,7.3311767578125
1702338674497899000,0.37989892578125,10.30810546875,1.1831512451171875,5.0125274658203125
1702338674622807300,0.504807373046875,8.758758544921875,1.5923309326171875,3.445831298828125
1702338674747685400,0.629685302734375,9.374298095703125,4.0916290283203125,0.9232025146484375
1702338674872593700,0.75459375,7.9320220947265625,4.2932281494140625,0.4296722412109375
1702338674997502200,0.879502197265625,10.08856201171875,3.1027984619140625,0.1407470703125
1702338675122349600,1.004349609375,7.9613494873046875,5.340087890625,-2.7581634521484375
1702338675247227600,1.1292275390625,4.1519622802734375,6.832000732421875,0.4936981201171875
1702338675372136000,1.254135986328125,6.1918487548828125,6.5478668212890625,-0.455078125
1702338675497044500,1.37904443359375,8.125259399414062,5.8832550048828125,-2.8030242919921875
1702338675621953000,1.503953125,8.502120971679688,2.2144622802734375,-1.6957550048828125
1702338675746891800,1.628891845703125,11.052871704101562,-0.3398895263671875,-1.7394256591796875
1702338675871861200,1.753861328125,9.728439331054688,2.701995849609375,-0.0847930908203125
1702338675996800300,1.87880029296875,8.294540405273438,0.7003936767578125,-2.1749114990234375
1702338676121739300,2.0037392578125,8.37469482421875,-0.0545501708984375,-4.28118896484375
1702338676246678300,2.12867822265625,8.166534423828125,0.1991119384765625,-5.630157470703125
1702338676371617300,2.2536171875,9.092544555664062,0.18115234375,-3.8636474609375
1702338676496586800,2.378586669921875,9.595046997070312,-0.12274169921875,-3.5681304931640625
1702338676621525800,2.50352587890625,10.850082397460938,-0.673095703125,-0.24749755859375
1702338676746495200,2.6284951171875,16.071212768554688,0.0908203125,-1.8824005126953125
1702338676871434000,2.75343408203125,9.89892578125,0.0962066650390625,0.0438232421875
1702338676996373000,2.878373046875,9.877395629882812,0.0728759765625,0.12579345703125
1702338677110508800,2.9925087890625,9.873794555664062,0.0872344970703125,0.1401519775390625
1702338677214634800,3.096634765625,9.875,0.0728759765625,0.128173828125
1702338677318760700,3.2007607421875,9.861831665039062,0.0752716064453125,0.128173828125
1702338677422886700,3.30488671875,9.884567260742188,0.083648681640625,0.1305694580078125
1702338677527043300,3.409043212890625,9.89892578125,0.0680999755859375,0.128173828125
1702338677631169300,3.513169189453125,9.8929443359375,0.0585174560546875,0.128173828125
1702338677735325700,3.61732568359375,9.901321411132812,0.054931640625,0.12579345703125
1702338677839451600,3.72145166015625,9.882171630859375,0.083648681640625,0.1341552734375
1702338677943577600,3.82557763671875,9.867813110351562,0.083648681640625,0.1245880126953125
1702338678047642600,3.929642578125,9.876190185546875,0.078857421875,0.1245880126953125
1702338678151768600,4.0337685546875,9.883377075195312,0.0680999755859375,0.1293792724609375
1702338678255894500,4.13789453125,9.883377075195312,0.0561370849609375,0.11981201171875
1702338678360020500,4.2420205078125,9.879791259765625,0.0740814208984375,0.126983642578125
1702338678464146400,4.346146484375,9.89892578125,0.0501556396484375,0.1233978271484375
1702338678568272400,4.4502724609375,9.875,0.071685791015625,0.12579345703125
1702338678672398300,4.5543984375,9.870208740234375,0.078857421875,0.1233978271484375
1702338678776524500,4.658524658203125,9.8690185546875,0.077667236328125,0.1162109375
1702338678880650500,4.762650390625,9.873794555664062,0.0752716064453125,0.1186065673828125
1702338678984776400,4.8667763671875,9.895339965820312,0.0501556396484375,0.126983642578125
1702338679088902400,4.97090234375,9.894134521484375,0.0740814208984375,0.1293792724609375
1702338679193028400,5.0750283203125,9.8809814453125,0.07647705078125,0.128173828125
1702338679297154300,5.179154296875,9.89892578125,0.054931640625,0.1162109375
1702338679401310700,5.283310791015625,9.877395629882812,0.077667236328125,0.1353607177734375
1702338679505467400,5.38746728515625,9.897735595703125,0.0561370849609375,0.128173828125
1702338679609593300,5.49159326171875,9.877395629882812,0.0633087158203125,0.1365509033203125
1702338679713719300,5.59571923828125,9.859451293945312,0.0740814208984375,0.1221923828125
1702338679817845200,5.69984521484375,9.876190185546875,0.078857421875,0.1293792724609375
1702338679921971200,5.80397119140625,9.867813110351562,0.07647705078125,0.1162109375
1702338680026097200,5.90809716796875,9.871414184570312,0.0812530517578125,0.1365509033203125
1702338680130223000,6.01222314453125,9.876190185546875,0.0609130859375,0.12579345703125
1702338680234349000,6.11634912109375,9.865432739257812,0.0752716064453125,0.1341552734375
1702338680338444500,6.220444580078125,9.901321411132812,0.0644989013671875,0.1233978271484375
1702338680442601200,6.324601318359375,9.890548706054688,0.059722900390625,0.1174163818359375
1702338680546696400,6.428696533203125,9.871414184570312,0.065704345703125,0.12579345703125
1702338680654240500,6.536240478515625,9.875,0.0740814208984375,0.12579345703125
1702338680754948600,6.636948486328125,9.876190185546875,0.08245849609375,0.115020751953125
1702338680859074600,6.741074462890625,9.878585815429688,0.065704345703125,0.1221923828125
1702338680963170000,6.845170166015625,9.889358520507812,0.071685791015625,0.1245880126953125
1702338681067296000,6.9492958984375,9.863037109375,0.0752716064453125,0.1233978271484375
1702338681171422000,7.053421875,9.872604370117188,0.0740814208984375,0.126983642578125
1702338681275548000,7.1575478515625,9.884567260742188,0.0644989013671875,0.126983642578125
1702338681380589300,7.26258935546875,9.865432739257812,0.0692901611328125,0.1233978271484375
1702338681484624000,7.366623779296875,9.871414184570312,0.078857421875,0.11981201171875
1702338681587925800,7.46992578125,9.889358520507812,0.0752716064453125,0.128173828125
1702338681692051700,7.5740517578125,9.875,0.0740814208984375,0.11383056640625
1702338681796177700,7.678177734375,9.863037109375,0.07647705078125,0.1305694580078125
1702338681900303600,7.7823037109375,9.886962890625,0.07647705078125,0.126983642578125
1702338682004399000,7.886399169921875,9.901321411132812,0.078857421875,0.1186065673828125
1702338682108555800,7.9905556640625,9.870208740234375,0.083648681640625,0.10784912109375
1702338682212681700,8.094681640625,9.863037109375,0.083648681640625,0.1245880126953125
1702338682318791200,8.200791259765625,9.883377075195312,0.0812530517578125,0.1221923828125
1702338682420964000,8.302964111328125,9.876190185546875,0.0740814208984375,0.13177490234375
1702338682525914000,8.4079140625,9.877395629882812,0.0728759765625,0.1233978271484375
1702338682630833400,8.51283349609375,9.859451293945312,0.0728759765625,0.1245880126953125
1702338682733372700,8.61537255859375,9.876190185546875,0.078857421875,0.1305694580078125
1702338682838353200,8.720353271484376,9.877395629882812,0.0860443115234375,0.1233978271484375
1702338682941655000,8.823655029296875,9.895339965820312,0.0525360107421875,0.13177490234375
1702338683045781000,8.927781005859375,9.884567260742188,0.0740814208984375,0.13775634765625
1702338683149937400,9.0319375,9.886962890625,0.0680999755859375,0.13177490234375
1702338683254063600,9.136063720703126,9.861831665039062,0.07647705078125,0.1293792724609375
1702338683358189600,9.240189453125,9.861831665039062,0.077667236328125,0.1233978271484375
1702338683462285000,9.34428515625,9.863037109375,0.0585174560546875,0.1233978271484375
1702338683566441500,9.44844140625,9.878585815429688,0.078857421875,0.1341552734375
1702338683672098300,9.554098388671875,9.864227294921875,0.077667236328125,0.13775634765625
1702338683774729000,9.65672900390625,9.8809814453125,0.0800628662109375,0.1186065673828125
1702338683879800800,9.76180078125,9.885772705078125,0.0740814208984375,0.1233978271484375
1702338683984567800,9.86656787109375,9.872604370117188,0.083648681640625,0.1186065673828125
1702338684087137300,9.96913720703125,9.876190185546875,0.08245849609375,0.128173828125
1702338684192056800,10.074056884765625,9.9049072265625,0.065704345703125,0.1293792724609375
1702338684297037300,10.179037353515625,9.879791259765625,0.0848388671875,0.138946533203125
1702338684399545900,10.2815458984375,9.882171630859375,0.0728759765625,0.1341552734375
1702338684504587300,10.386587158203126,9.888153076171875,0.053741455078125,0.132965087890625
1702338684609354200,10.491354248046875,9.8929443359375,0.0872344970703125,0.1305694580078125
1702338684711954200,10.5939541015625,9.872604370117188,0.0752716064453125,0.1174163818359375
1702338684816904200,10.698904296875,9.882171630859375,0.0800628662109375,0.126983642578125
1702338684921823500,10.803823486328126,9.907302856445312,0.065704345703125,0.128173828125
1702338685024362800,10.90636279296875,9.877395629882812,0.078857421875,0.1233978271484375
1702338685128488700,11.01048876953125,9.882171630859375,0.0633087158203125,0.128173828125
1702338685232584200,11.114584228515625,9.866622924804688,0.071685791015625,0.1245880126953125
1702338685336710100,11.218710205078125,9.873794555664062,0.0860443115234375,0.138946533203125
1702338685441721000,11.32372119140625,9.870208740234375,0.0872344970703125,0.12579345703125
1702338685546884600,11.428884521484376,9.883377075195312,0.0752716064453125,0.1245880126953125
1702338685649088000,11.531087890625,9.891754150390625,0.0644989013671875,0.128173828125
1702338685753214000,11.6352138671875,9.860641479492188,0.0908203125,0.1245880126953125
1702338685857340000,11.73933984375,9.885772705078125,0.078857421875,0.1341552734375
1702338685961496600,11.84349658203125,9.896530151367188,0.054931640625,0.1221923828125
1702338686065591800,11.947591796875,9.888153076171875,0.065704345703125,0.1245880126953125
1702338686169718000,12.051718017578125,9.865432739257812,0.06689453125,0.126983642578125
1702338686273844000,12.155843994140625,9.902511596679688,0.0644989013671875,0.1174163818359375
1702338686377970000,12.259969970703125,9.864227294921875,0.0704803466796875,0.1245880126953125
1702338686482095900,12.364095947265625,9.863037109375,0.08245849609375,0.1293792724609375
1702338686586221800,12.468221923828125,9.876190185546875,0.07647705078125,0.1293792724609375
1702338686690347800,12.57234765625,9.891754150390625,0.065704345703125,0.1365509033203125
1702338686794473700,12.6764736328125,9.876190185546875,0.0848388671875,0.1365509033203125
1702338686898599700,12.780599609375,9.8570556640625,0.0752716064453125,0.1341552734375
1702338687002695200,12.884695068359376,9.877395629882812,0.08245849609375,0.1245880126953125
1702338687106821000,12.988821044921876,9.867813110351562,0.0812530517578125,0.128173828125
1702338687210947000,13.092947021484376,9.873794555664062,0.071685791015625,0.13177490234375
1702338687315073000,13.197072998046876,9.872604370117188,0.08843994140625,0.1162109375
1702338687419229700,13.301229736328125,9.878585815429688,0.0680999755859375,0.1353607177734375
1702338687523355600,13.405355712890625,9.8929443359375,0.065704345703125,0.128173828125
1702338687627481600,13.509481689453125,9.879791259765625,0.0752716064453125,0.128173828125
1702338687731607600,13.613607666015625,9.877395629882812,0.0800628662109375,0.126983642578125
1702338687835733500,13.7177333984375,9.900115966796875,0.0633087158203125,0.1353607177734375
1702338687939859500,13.821859375,9.867813110351562,0.065704345703125,0.1341552734375
1702338688044015900,13.926015869140626,9.8809814453125,0.0680999755859375,0.12579345703125
1702338688148142000,14.03014208984375,9.883377075195312,0.0644989013671875,0.1353607177734375
1702338688252268000,14.13426806640625,9.865432739257812,0.0800628662109375,0.1293792724609375
1702338688356394000,14.23839404296875,9.863037109375,0.0848388671875,0.1186065673828125
1702338688460550400,14.34255029296875,9.875,0.077667236328125,0.1341552734375
1702338688564676400,14.44667626953125,9.866622924804688,0.0728759765625,0.1174163818359375
1702338688668802300,14.55080224609375,9.8809814453125,0.071685791015625,0.13177490234375
1702338688772959000,14.654958984375,9.853469848632812,0.078857421875,0.126983642578125
1702338688877085000,14.7590849609375,9.872604370117188,0.0740814208984375,0.1353607177734375
1702338688981211000,14.8632109375,9.894134521484375,0.0752716064453125,0.1221923828125
1702338689085367300,14.9673671875,9.907302856445312,0.0644989013671875,0.1186065673828125
1702338689212228900,15.094228759765626,9.890548706054688,0.0609130859375,0.128173828125
1702338689318837800,15.200837646484375,9.825942993164062,0.0692901611328125,0.121002197265625
1702338689419607000,15.30160693359375,9.830734252929688,0.078857421875,0.1365509033203125
1702338689520315000,15.40231494140625,9.858245849609375,0.077667236328125,0.1293792724609375
1702338689621023000,15.50302294921875,9.8450927734375,0.071685791015625,0.115020751953125
1702338689721731000,15.60373095703125,9.839111328125,0.0752716064453125,0.138946533203125
1702338689822469400,15.704469482421874,9.82952880859375,0.0704803466796875,0.1341552734375
1702338689923177500,15.805177490234374,9.83551025390625,0.0644989013671875,0.132965087890625
1702338690023885600,15.905885498046874,9.84149169921875,0.0680999755859375,0.1162109375
1702338690124624100,16.0066240234375,9.859451293945312,0.0644989013671875,0.1245880126953125
1702338690225362400,16.107362548828124,9.842697143554688,0.0633087158203125,0.115020751953125
1702338690326101000,16.20810107421875,9.81756591796875,0.071685791015625,0.132965087890625
1702338690426839600,16.308839599609374,9.8450927734375,0.0704803466796875,0.138946533203125
1702338690527547600,16.409547607421874,9.849868774414062,0.0692901611328125,0.1221923828125
1702338690628255500,16.51025537109375,9.842697143554688,0.0740814208984375,0.1425323486328125
1702338690728994000,16.610994140625,9.843887329101562,0.0692901611328125,0.13775634765625
1702338690829732600,16.711732666015624,9.85107421875,0.0692901611328125,0.115020751953125
1702338690930471200,16.81247119140625,9.83551025390625,0.0680999755859375,0.1353607177734375
1702338691031209700,16.913209716796874,9.854660034179688,0.0800628662109375,0.1413421630859375
1702338691131978800,17.013978759765624,9.8450927734375,0.071685791015625,0.13177490234375
1702338691232717300,17.11471728515625,9.828338623046875,0.0573272705078125,0.1401519775390625
1702338691333456000,17.215455810546874,9.861831665039062,0.0573272705078125,0.1293792724609375
1702338691434194400,17.3161943359375,9.8271484375,0.0800628662109375,0.13775634765625
1702338691534932700,17.4169326171875,9.842697143554688,0.0621185302734375,0.1305694580078125
1702338691635671300,17.51767138671875,9.863037109375,0.0692901611328125,0.12579345703125
1702338691736409900,17.618409912109374,9.830734252929688,0.0633087158203125,0.1233978271484375
1702338691837148400,17.7191484375,9.830734252929688,0.0633087158203125,0.1341552734375
1702338691937917400,17.81991748046875,9.836715698242188,0.077667236328125,0.128173828125
1702338692038625500,17.92062548828125,9.8271484375,0.07647705078125,0.1245880126953125
1702338692139364000,18.021364013671874,9.8570556640625,0.0704803466796875,0.12579345703125
1702338692240133000,18.122133056640624,9.825942993164062,0.06689453125,0.1401519775390625
1702338692340871700,18.22287158203125,9.830734252929688,0.0740814208984375,0.138946533203125
1702338692441579500,18.32357958984375,9.842697143554688,0.0704803466796875,0.1341552734375
1702338692542318000,18.424318115234374,9.8450927734375,0.071685791015625,0.1293792724609375
1702338692643026200,18.525026123046874,9.825942993164062,0.0740814208984375,0.14373779296875
1702338692743764700,18.6257646484375,9.842697143554688,0.0644989013671875,0.11981201171875
1702338692844503000,18.7265029296875,9.859451293945312,0.065704345703125,0.121002197265625
1702338692945211100,18.827211181640624,9.840301513671875,0.0752716064453125,0.1245880126953125
1702338693045919200,18.927919189453124,9.854660034179688,0.0740814208984375,0.13177490234375
1702338693146688300,19.028688232421874,9.830734252929688,0.0692901611328125,0.12579345703125
1702338693247396400,19.129396240234374,9.861831665039062,0.0740814208984375,0.1162109375
1702338693348134700,19.230134765625,9.860641479492188,0.0680999755859375,0.11383056640625
1702338693448873200,19.330873291015624,9.836715698242188,0.065704345703125,0.1221923828125
1702338693549611800,19.43161181640625,9.849868774414062,0.077667236328125,0.1305694580078125
1702338693650339300,19.53233935546875,9.836715698242188,0.078857421875,0.12579345703125
1702338693751078000,19.633077880859375,9.861831665039062,0.07647705078125,0.14373779296875
1702338693851816200,19.733816162109374,9.837905883789062,0.0644989013671875,0.128173828125
1702338693952554800,19.8345546875,9.867813110351562,0.0752716064453125,0.1305694580078125
1702338694053293300,19.935293212890624,9.865432739257812,0.077667236328125,0.13775634765625
1702338694154001400,20.03600146484375,9.85107421875,0.07647705078125,0.1233978271484375
1702338694254709200,20.136709228515624,9.834320068359375,0.0633087158203125,0.1341552734375
1702338694355447800,20.23744775390625,9.854660034179688,0.078857421875,0.12579345703125
1702338694456156000,20.338156005859375,9.852264404296875,0.0692901611328125,0.13775634765625
1702338694556864000,20.438864013671875,9.83551025390625,0.0800628662109375,0.121002197265625
1702338694657571800,20.53957177734375,9.858245849609375,0.0692901611328125,0.132965087890625
1702338694758310400,20.640310302734374,9.818771362304688,0.0740814208984375,0.11981201171875
1702338694859049000,20.741049072265625,9.852264404296875,0.07647705078125,0.126983642578125
1702338694959757000,20.841757080078125,9.84149169921875,0.0704803466796875,0.132965087890625
1702338695060495600,20.94249560546875,9.836715698242188,0.0644989013671875,0.1425323486328125
1702338695161203500,21.043203369140624,9.824752807617188,0.0692901611328125,0.12579345703125
1702338695261911600,21.14391162109375,9.867813110351562,0.071685791015625,0.13177490234375
1702338695362619600,21.24461962890625,9.847488403320312,0.0752716064453125,0.1186065673828125
1702338695463327500,21.345327392578124,9.836715698242188,0.0740814208984375,0.13177490234375
1702338695564035600,21.44603564453125,9.830734252929688,0.0680999755859375,0.1413421630859375
1702338695664743400,21.546743408203124,9.85107421875,0.0609130859375,0.126983642578125
1702338695765482000,21.64748193359375,9.849868774414062,0.0633087158203125,0.1413421630859375
1702338695866190000,21.748190185546875,9.822357177734375,0.071685791015625,0.115020751953125
1702338695966898200,21.848898193359375,9.860641479492188,0.0633087158203125,0.13177490234375
1702338696067636700,21.94963671875,9.861831665039062,0.0704803466796875,0.1401519775390625
1702338696168375000,22.050375,9.855850219726562,0.0752716064453125,0.128173828125
1702338696269083100,22.151083251953125,9.860641479492188,0.0800628662109375,0.115020751953125
1702338696369821700,22.25182177734375,9.864227294921875,0.0609130859375,0.1365509033203125
1702338696470529800,22.35252978515625,9.85107421875,0.0680999755859375,0.14373779296875
1702338696571298800,22.453298828125,9.8690185546875,0.065704345703125,0.1425323486328125
1702338696672037000,22.554037109375,9.859451293945312,0.0812530517578125,0.1365509033203125
1702338696772745200,22.6547451171875,9.551971435546875,0.288238525390625,-0.2259521484375
1702338696873483800,22.75548388671875,9.894134521484375,0.071685791015625,0.0408477783203125
1702338696974222300,22.856222412109375,9.859451293945312,-0.079071044921875,0.526580810546875
1702338697074930400,22.956930419921875,9.80560302734375,0.0908203125,0.103057861328125
1702338697175668700,23.057668701171874,9.754165649414062,0.1231231689453125,0.0958709716796875
1702338697276407300,23.1584072265625,9.859451293945312,0.0872344970703125,0.1293792724609375
1702338697377145900,23.259145751953124,9.848678588867188,0.0920257568359375,0.1533050537109375
1702338697477884400,23.359884521484375,9.853469848632812,0.0800628662109375,0.144927978515625
1702338697578623000,23.460623046875,9.824752807617188,0.0908203125,0.126983642578125
1702338697679392000,23.56139208984375,9.855850219726562,0.0800628662109375,0.1413421630859375
1702338697780130600,23.662130615234375,9.842697143554688,0.08843994140625,0.1305694580078125
1702338697880869000,23.762869140625,9.837905883789062,0.08843994140625,0.1425323486328125
1702338697981638100,23.86363818359375,9.84149169921875,0.0800628662109375,0.1521148681640625
1702338698082376700,23.964376708984375,9.858245849609375,0.0872344970703125,0.1521148681640625
1702338698183176200,24.06517626953125,9.815185546875,0.0908203125,0.1341552734375
1702338698283945200,24.1659453125,9.837905883789062,0.08843994140625,0.144927978515625
1702338698384714200,24.26671435546875,9.843887329101562,0.0920257568359375,0.1425323486328125
1702338698485452800,24.367452880859375,9.83551025390625,0.083648681640625,0.1341552734375
1702338698586191400,24.46819140625,9.837905883789062,0.0752716064453125,0.1425323486328125
1702338698686960400,24.56896044921875,9.839111328125,0.0920257568359375,0.132965087890625
1702338698787699000,24.669698974609375,9.840301513671875,0.08843994140625,0.126983642578125
1702338698888437500,24.7704375,9.846282958984375,0.08245849609375,0.13775634765625
1702338698989175800,24.87117578125,9.819961547851562,0.077667236328125,0.16766357421875
1702338699089884000,24.9718837890625,9.8271484375,0.0848388671875,0.1305694580078125
1702338699190622500,25.07262255859375,9.85107421875,0.08245849609375,0.15570068359375
1702338699291330600,25.17333056640625,9.837905883789062,0.0800628662109375,0.1413421630859375
1702338699392068900,25.27406884765625,9.848678588867188,0.08245849609375,0.14373779296875
1702338699492838100,25.374838134765625,9.82952880859375,0.07647705078125,0.13177490234375
1702338699593576400,25.475576416015624,9.858245849609375,0.0848388671875,0.14373779296875
1702338699694315000,25.57631494140625,9.83551025390625,0.0848388671875,0.14373779296875
1702338699795023000,25.677023193359375,9.837905883789062,0.0740814208984375,0.1413421630859375
1702338699895761700,25.77776171875,9.834320068359375,0.0860443115234375,0.14373779296875
1702338699996500200,25.878500244140625,9.85107421875,0.08245849609375,0.144927978515625
1702338700097238800,25.97923876953125,9.840301513671875,0.0812530517578125,0.1521148681640625
1702338700197977000,26.07997705078125,9.836715698242188,0.0908203125,0.14971923828125
1702338700298685200,26.180685302734375,9.8450927734375,0.0752716064453125,0.150909423828125
1702338700399393300,26.281393310546875,9.840301513671875,0.0812530517578125,0.138946533203125
1702338700500131800,26.3821318359375,9.83551025390625,0.0848388671875,0.1485137939453125
1702338700600870100,26.4828701171875,9.837905883789062,0.083648681640625,0.1401519775390625
1702338700701639400,26.583639404296875,9.831924438476562,0.08843994140625,0.1592864990234375
1702338700802347300,26.68434716796875,9.8271484375,0.0812530517578125,0.1640777587890625
1702338700903085800,26.7850859375,9.843887329101562,0.0908203125,0.1353607177734375
1702338701003854800,26.885854736328124,9.837905883789062,0.0800628662109375,0.1461334228515625
1702338701104623900,26.986623779296874,9.855850219726562,0.0860443115234375,0.1353607177734375
1702338701205362400,27.087362548828125,9.84149169921875,0.0740814208984375,0.1544952392578125
1702338701306101000,27.18810107421875,9.867813110351562,0.0932159423828125,0.150909423828125
1702338701406870000,27.2888701171875,9.863037109375,0.08245849609375,0.1461334228515625
1702338701507639000,27.38963916015625,9.852264404296875,0.0812530517578125,0.156890869140625
1702338701608377600,27.490377685546875,9.866622924804688,0.0860443115234375,0.1473236083984375
1702338701709116200,27.5911162109375,9.83551025390625,0.083648681640625,0.13775634765625
1702338701809885200,27.69188525390625,9.873794555664062,0.0800628662109375,0.1365509033203125
1702338701910593300,27.79259326171875,9.830734252929688,0.0860443115234375,0.156890869140625
1702338702011362300,27.8933623046875,9.849868774414062,0.083648681640625,0.144927978515625
1702338702112100600,27.9941005859375,9.82952880859375,0.08245849609375,0.1293792724609375
1702338702212870000,28.094869873046875,9.8331298828125,0.08843994140625,0.138946533203125
1702338702313608200,28.195608154296874,9.84149169921875,0.0752716064453125,0.144927978515625
1702338702414346800,28.2963466796875,9.824752807617188,0.09442138671875,0.16766357421875
1702338702515085300,28.397085205078124,9.8331298828125,0.083648681640625,0.1533050537109375
1702338702615824000,28.497823974609375,9.842697143554688,0.089630126953125,0.1353607177734375
1702338702716562400,28.5985625,9.82952880859375,0.0860443115234375,0.1461334228515625
1702338702817301000,28.699301025390625,9.84149169921875,0.08843994140625,0.15570068359375
1702338702918039600,28.80003955078125,9.842697143554688,0.0908203125,0.14971923828125
1702338703018777900,28.90077783203125,9.837905883789062,0.0860443115234375,0.150909423828125
1702338703119516400,29.001516357421874,9.861831665039062,0.083648681640625,0.1473236083984375
1702338703220224500,29.102224609375,9.843887329101562,0.0920257568359375,0.14971923828125
1702338703320963000,29.202963134765625,9.836715698242188,0.0908203125,0.13775634765625
1702338703421671000,29.3036708984375,9.831924438476562,0.077667236328125,0.1533050537109375
1702338703522379000,29.40437890625,9.859451293945312,0.0860443115234375,0.156890869140625
1702338703623117600,29.50511767578125,9.846282958984375,0.08245849609375,0.15570068359375
1702338703723856100,29.605856201171875,9.848678588867188,0.08843994140625,0.1473236083984375
1702338703824594700,29.7065947265625,9.846282958984375,0.083648681640625,0.1604766845703125
1702338703925302500,29.807302490234374,9.83551025390625,0.0800628662109375,0.1365509033203125
1702338704026010600,29.9080107421875,9.849868774414062,0.08245849609375,0.1305694580078125
1702338704126749200,30.008749267578125,9.834320068359375,0.0872344970703125,0.13177490234375
1702338704227457300,30.109457275390625,9.837905883789062,0.083648681640625,0.1533050537109375
1702338704328165000,30.2101650390625,9.860641479492188,0.0872344970703125,0.1473236083984375
1702338704428873200,30.310873291015625,9.83551025390625,0.0920257568359375,0.1521148681640625
1702338704529611800,30.41161181640625,9.834320068359375,0.0908203125,0.1640777587890625
1702338704630350300,30.512350341796875,9.864227294921875,0.0848388671875,0.1425323486328125
1702338704731088600,30.613088623046874,9.819961547851562,0.0800628662109375,0.162872314453125
1702338704831858000,30.71385791015625,9.843887329101562,0.089630126953125,0.150909423828125
1702338704932596200,30.81459619140625,9.830734252929688,0.083648681640625,0.150909423828125
1702338705033334800,30.915334716796874,9.854660034179688,0.0812530517578125,0.14971923828125
1702338705134073300,31.0160732421875,9.834320068359375,0.089630126953125,0.14971923828125
1702338705234809000,31.11680908203125,9.831924438476562,0.083648681640625,0.1473236083984375
1702338705335517000,31.217516845703123,9.852264404296875,0.08245849609375,0.156890869140625
1702338705436225000,31.31822509765625,9.846282958984375,0.08843994140625,0.1365509033203125
1702338705536963600,31.418963623046874,9.847488403320312,0.0848388671875,0.1365509033203125
1702338705637702100,31.5197021484375,9.854660034179688,0.08245849609375,0.1425323486328125
1702338705738471200,31.62047119140625,9.858245849609375,0.089630126953125,0.1473236083984375
1702338705839209700,31.721209716796874,9.855850219726562,0.0872344970703125,0.1413421630859375
1702338705939948300,31.8219482421875,9.8271484375,0.0860443115234375,0.1461334228515625
1702338706040686600,31.9226865234375,9.846282958984375,0.0872344970703125,0.1413421630859375
1702338706141456000,32.02345581054688,9.8450927734375,0.08245849609375,0.1461334228515625
1702338706242163700,32.12416381835938,9.859451293945312,0.095611572265625,0.1533050537109375
1702338706342932700,32.2249326171875,9.824752807617188,0.0848388671875,0.1521148681640625
1702338706443640800,32.32564086914063,9.831924438476562,0.0860443115234375,0.14971923828125
1702338706544379400,32.42637939453125,9.8450927734375,0.083648681640625,0.12579345703125
1702338706645118000,32.52711791992188,9.843887329101562,0.0908203125,0.132965087890625
1702338706745856500,32.6278564453125,9.81756591796875,0.0848388671875,0.1580963134765625
1702338706846594800,32.7285947265625,9.8570556640625,0.083648681640625,0.1544952392578125
1702338706947333400,32.82933349609375,9.828338623046875,0.0752716064453125,0.1413421630859375
1702338707048041500,32.93004150390625,9.836715698242188,0.0812530517578125,0.1341552734375
1702338707148780000,33.03078002929688,9.830734252929688,0.083648681640625,0.1221923828125
1702338707249488000,33.13148779296875,9.852264404296875,0.077667236328125,0.14373779296875
1702338707350226400,33.23222631835937,9.8331298828125,0.0800628662109375,0.16168212890625
1702338707450934500,33.3329345703125,9.8450927734375,0.083648681640625,0.1413421630859375
1702338707551642600,33.433642578125,9.8331298828125,0.089630126953125,0.13177490234375
1702338707652381000,33.534380859375,9.852264404296875,0.089630126953125,0.144927978515625
1702338707753150200,33.63515014648438,9.859451293945312,0.078857421875,0.1365509033203125
1702338707853888500,33.73588842773437,9.8271484375,0.0872344970703125,0.14971923828125
1702338707954596600,33.8365966796875,9.860641479492188,0.08843994140625,0.13177490234375
1702338708055335200,33.93733520507813,9.853469848632812,0.0932159423828125,0.1413421630859375
1702338708156073700,34.03807373046875,9.825942993164062,0.083648681640625,0.1533050537109375
1702338708256812300,34.13881225585938,9.855850219726562,0.083648681640625,0.1425323486328125
1702338708357520100,34.23952001953125,9.8450927734375,0.08843994140625,0.144927978515625
1702338708458258700,34.3402587890625,9.828338623046875,0.09442138671875,0.144927978515625
1702338708558997200,34.44099731445313,9.8331298828125,0.08245849609375,0.1401519775390625
1702338708659735800,34.54173583984375,9.867813110351562,0.083648681640625,0.13775634765625
1702338708760444000,34.64244384765625,9.847488403320312,0.0920257568359375,0.132965087890625
1702338708861182200,34.74318212890625,9.837905883789062,0.089630126953125,0.13775634765625
1702338708961920800,34.84392065429687,9.849868774414062,0.077667236328125,0.1533050537109375
1702338709062659300,34.94465942382813,9.8331298828125,0.0991973876953125,0.1533050537109375
1702338709163398000,35.04539794921875,9.843887329101562,0.078857421875,0.1544952392578125
1702338709264136400,35.14613647460938,9.82952880859375,0.0848388671875,0.1353607177734375
1702338709364875000,35.246875,9.848678588867188,0.09442138671875,0.126983642578125
1702338709465613600,35.34761352539063,9.837905883789062,0.0908203125,0.1533050537109375
1702338709566352100,35.44835205078125,9.848678588867188,0.07647705078125,0.1401519775390625
1702338709667090400,35.54909033203125,9.839111328125,0.089630126953125,0.14971923828125
1702338709767829000,35.6498291015625,9.837905883789062,0.08843994140625,0.1485137939453125
1702338709868567600,35.75056762695313,9.858245849609375,0.08245849609375,0.1425323486328125
1702338709969275600,35.85127563476563,9.8570556640625,0.0860443115234375,0.1293792724609375
1702338710070014200,35.95201416015625,9.828338623046875,0.089630126953125,0.1365509033203125
1702338710170752500,36.05275244140625,9.828338623046875,0.0800628662109375,0.1365509033203125
1702338710271491000,36.15349096679687,9.82952880859375,0.0920257568359375,0.1521148681640625
1702338710372199200,36.25419921875,9.831924438476562,0.0848388671875,0.1485137939453125
1702338710472937700,36.35493774414063,9.836715698242188,0.0932159423828125,0.156890869140625
1702338710573676300,36.45567626953125,9.8211669921875,0.0860443115234375,0.1365509033203125
1702338710674414800,36.55641479492188,9.82952880859375,0.0920257568359375,0.144927978515625
1702338710775153200,36.65715307617187,9.843887329101562,0.0800628662109375,0.1353607177734375
1702338710875891700,36.7578916015625,9.836715698242188,0.083648681640625,0.14373779296875
1702338710976660700,36.85866064453125,9.825942993164062,0.08245849609375,0.13177490234375
1702338711077399300,36.9593994140625,9.840301513671875,0.0860443115234375,0.14373779296875
1702338711178168300,37.06016821289062,9.837905883789062,0.0860443115234375,0.1544952392578125
1702338711278937300,37.16093725585937,9.837905883789062,0.0812530517578125,0.13775634765625
1702338711379676000,37.26167602539063,9.839111328125,0.07647705078125,0.138946533203125
1702338711480445000,37.36244482421875,9.834320068359375,0.078857421875,0.138946533203125
1702338711581183500,37.46318359375,9.82952880859375,0.08245849609375,0.156890869140625
1702338711681922000,37.56392211914063,9.822357177734375,0.0812530517578125,0.1425323486328125
1702338711782630100,37.66463012695313,9.831924438476562,0.0860443115234375,0.1293792724609375
1702338711883338000,37.765337890625,9.8450927734375,0.08843994140625,0.156890869140625
1702338711984076500,37.86607666015625,9.843887329101562,0.089630126953125,0.1401519775390625
1702338712084815000,37.96681518554688,9.855850219726562,0.083648681640625,0.16168212890625
1702338712185584000,38.06758422851563,9.854660034179688,0.083648681640625,0.1401519775390625
1702338712286322700,38.16832275390625,9.855850219726562,0.095611572265625,0.150909423828125
1702338712387061200,38.26906127929688,9.8331298828125,0.08245849609375,0.1473236083984375
1702338712487799800,38.3697998046875,9.854660034179688,0.0728759765625,0.1485137939453125
1702338712588538400,38.47053833007813,9.85107421875,0.0800628662109375,0.150909423828125
1702338712689277000,38.57127685546875,9.847488403320312,0.083648681640625,0.1293792724609375
1702338712790015200,38.67201513671875,9.846282958984375,0.077667236328125,0.12579345703125
1702338712890723300,38.77272338867188,9.8450927734375,0.0860443115234375,0.1425323486328125
1702338712991462000,38.8734619140625,9.836715698242188,0.08245849609375,0.1401519775390625
1702338713092170000,38.974169921875,9.855850219726562,0.0752716064453125,0.150909423828125
1702338713192908300,39.074908203125,9.836715698242188,0.0920257568359375,0.1533050537109375
1702338713293616400,39.17561645507813,9.849868774414062,0.08245849609375,0.1592864990234375
1702338713394324500,39.27632446289063,9.840301513671875,0.0872344970703125,0.1544952392578125
1702338713495093500,39.37709350585938,9.848678588867188,0.08245849609375,0.14971923828125
1702338713595832000,39.47783203125,9.8211669921875,0.083648681640625,0.1521148681640625
1702338713696570600,39.57857055664063,9.834320068359375,0.0920257568359375,0.1580963134765625
1702338713797309000,39.67930883789062,9.819961547851562,0.0872344970703125,0.1533050537109375
1702338713898017000,39.78001708984375,9.836715698242188,0.089630126953125,0.150909423828125
1702338713998786000,39.8807861328125,9.837905883789062,0.0848388671875,0.1485137939453125
1702338714099524600,39.98152465820313,9.84149169921875,0.0860443115234375,0.1461334228515625
1702338714200261600,40.08226171875,9.839111328125,0.0848388671875,0.162872314453125
1702338714301030700,40.18303076171875,9.842697143554688,0.077667236328125,0.1485137939453125
1702338714401769200,40.28376928710937,9.866622924804688,0.0848388671875,0.150909423828125
1702338714502477000,40.38447705078125,9.8570556640625,0.0812530517578125,0.1353607177734375
1702338714603215600,40.485215576171875,9.83551025390625,0.08245849609375,0.144927978515625
1702338714703954200,40.5859541015625,9.846282958984375,0.0752716064453125,0.13775634765625
1702338714804723200,40.68672314453125,9.837905883789062,0.0991973876953125,0.1401519775390625
1702338714905431300,40.78743139648437,9.840301513671875,0.0980072021484375,0.138946533203125
1702338715006169900,40.888169921875,9.84149169921875,0.0872344970703125,0.1425323486328125
1702338715106908400,40.98890844726562,9.8450927734375,0.0848388671875,0.1580963134765625
1702338715207616300,41.0896162109375,9.839111328125,0.083648681640625,0.1592864990234375
1702338715308385300,41.19038525390625,9.824752807617188,0.08843994140625,0.1533050537109375
1702338715409154300,41.291154296875,9.843887329101562,0.078857421875,0.13775634765625
1702338715509892900,41.391892822265625,9.839111328125,0.083648681640625,0.13177490234375
1702338715610631400,41.49263134765625,9.8271484375,0.0872344970703125,0.14971923828125
1702338715711400400,41.593400390625,9.8570556640625,0.083648681640625,0.1473236083984375
1702338715812139000,41.694138916015625,9.834320068359375,0.09442138671875,0.14373779296875
1702338715912877600,41.79487768554687,9.852264404296875,0.0848388671875,0.144927978515625
1702338716013616000,41.8956162109375,9.840301513671875,0.0932159423828125,0.1604766845703125
1702338716114324000,41.996323974609375,9.816375732421875,0.0848388671875,0.1221923828125
1702338716215062500,42.0970625,9.836715698242188,0.0812530517578125,0.1521148681640625
1702338716315770600,42.1977705078125,9.860641479492188,0.0848388671875,0.1544952392578125
1702338716416509200,42.29850927734375,9.842697143554688,0.08843994140625,0.1592864990234375
1702338716517247700,42.39924780273437,9.831924438476562,0.0932159423828125,0.1473236083984375
1702338716617955600,42.49995556640625,9.843887329101562,0.08245849609375,0.150909423828125
1702338716718694100,42.600694091796875,9.831924438476562,0.083648681640625,0.1401519775390625
1702338716819463200,42.701463134765625,9.840301513671875,0.0908203125,0.15570068359375
1702338716920201700,42.80220166015625,9.834320068359375,0.083648681640625,0.14373779296875
1702338717020940300,42.902940185546875,9.842697143554688,0.078857421875,0.1293792724609375
1702338717121678800,43.00367895507812,9.834320068359375,0.0872344970703125,0.1485137939453125
1702338717222417400,43.10441748046875,9.861831665039062,0.0860443115234375,0.1425323486328125
1702338717323156000,43.20515600585937,9.82952880859375,0.0812530517578125,0.150909423828125
1702338717423925000,43.30592504882812,9.8271484375,0.0872344970703125,0.144927978515625
1702338717524663600,43.40666357421875,9.847488403320312,0.0800628662109375,0.1485137939453125
1702338717625432600,43.5074326171875,9.840301513671875,0.083648681640625,0.1461334228515625
1702338717726171000,43.6081708984375,9.84149169921875,0.08843994140625,0.1473236083984375
1702338717826909400,43.708909423828125,9.83551025390625,0.0728759765625,0.144927978515625
1702338717927648000,43.80964794921875,9.836715698242188,0.089630126953125,0.1425323486328125
1702338718028386600,43.910386474609375,9.836715698242188,0.08843994140625,0.1533050537109375
1702338718129125000,44.011125,9.8570556640625,0.0800628662109375,0.1485137939453125
1702338718229863700,44.11186376953125,9.843887329101562,0.0908203125,0.1544952392578125
1702338718330632700,44.2126328125,9.848678588867188,0.0932159423828125,0.14373779296875
1702338718431371300,44.31337133789062,9.85107421875,0.077667236328125,0.13177490234375
1702338718532109800,44.41410986328125,9.837905883789062,0.083648681640625,0.1544952392578125
1702338718632878800,44.51487890625,9.849868774414062,0.078857421875,0.1521148681640625
1702338718733648000,44.61564794921875,9.865432739257812,0.0908203125,0.1473236083984375
1702338718834355700,44.716355712890625,9.825942993164062,0.08245849609375,0.1485137939453125
1702338718935124700,44.817124755859375,9.849868774414062,0.07647705078125,0.1473236083984375
1702338719035832800,44.917832763671875,9.84149169921875,0.089630126953125,0.1544952392578125
1702338719136571400,45.0185712890625,9.836715698242188,0.0932159423828125,0.1413421630859375
1702338719237310000,45.11931005859375,9.842697143554688,0.089630126953125,0.1473236083984375
1702338719338048500,45.22004858398437,9.837905883789062,0.0860443115234375,0.150909423828125
1702338719438787000,45.320787109375,9.840301513671875,0.0812530517578125,0.1544952392578125
1702338719539525400,45.421525390625,9.847488403320312,0.08245849609375,0.1473236083984375
1702338719640294700,45.52229467773437,9.81756591796875,0.0800628662109375,0.1485137939453125
1702338719741033000,45.623032958984375,9.8331298828125,0.08245849609375,0.1580963134765625
1702338719841771500,45.723771484375,9.842697143554688,0.089630126953125,0.1425323486328125
1702338719942540500,45.82454052734375,9.834320068359375,0.0872344970703125,0.1473236083984375
1702338720043248600,45.92524853515625,9.8211669921875,0.0908203125,0.1485137939453125
1702338720143987200,46.0259873046875,9.842697143554688,0.0872344970703125,0.15570068359375
1702338720244725800,46.12672583007812,9.837905883789062,0.0872344970703125,0.1413421630859375
1702338720345433600,46.22743359375,9.858245849609375,0.0908203125,0.1365509033203125
1702338720446172200,46.328172119140625,9.83551025390625,0.083648681640625,0.1425323486328125
1702338720546910700,46.42891064453125,9.825942993164062,0.0860443115234375,0.15570068359375
1702338720647618800,46.52961889648437,9.831924438476562,0.0872344970703125,0.150909423828125
1702338720748357400,46.630357421875,9.8450927734375,0.083648681640625,0.1341552734375
1702338720849095700,46.731095703125,9.847488403320312,0.0860443115234375,0.1544952392578125
1702338720949803800,46.8318037109375,9.839111328125,0.0860443115234375,0.14971923828125
1702338721050542300,46.932542236328125,9.846282958984375,0.083648681640625,0.128173828125
1702338721151250400,47.03325048828125,9.8211669921875,0.08245849609375,0.1401519775390625
1702338721251958300,47.133958251953125,9.85107421875,0.0848388671875,0.1413421630859375
1702338721352696800,47.23469677734375,9.84149169921875,0.08245849609375,0.1461334228515625
1702338721453405000,47.33540502929687,9.852264404296875,0.08245849609375,0.13177490234375
1702338721554143500,47.4361435546875,9.858245849609375,0.0848388671875,0.13775634765625
1702338721654851300,47.536851318359375,9.836715698242188,0.0908203125,0.1580963134765625
1702338721755590000,47.63758984375,9.83551025390625,0.0860443115234375,0.14373779296875
1702338721856328400,47.738328369140625,9.828338623046875,0.0908203125,0.1485137939453125
1702338721957036500,47.83903662109375,9.846282958984375,0.08843994140625,0.1485137939453125
1702338722057775000,47.93977514648437,9.846282958984375,0.0908203125,0.1580963134765625
1702338722158483000,48.04048291015625,9.843887329101562,0.0920257568359375,0.150909423828125
1702338722259221500,48.141221435546875,9.842697143554688,0.0872344970703125,0.1461334228515625
1702338722359960000,48.2419599609375,9.836715698242188,0.08843994140625,0.1341552734375
1702338722460729000,48.34272900390625,9.852264404296875,0.08843994140625,0.1485137939453125
1702338722561437200,48.44343725585937,9.847488403320312,0.0848388671875,0.1341552734375
1702338722662206200,48.54420629882812,9.822357177734375,0.083648681640625,0.1473236083984375
1702338722762944800,48.64494482421875,9.837905883789062,0.089630126953125,0.1652679443359375
1702338722863683300,48.74568334960937,9.828338623046875,0.0872344970703125,0.1365509033203125
1702338722964391200,48.84639111328125,9.855850219726562,0.0920257568359375,0.1473236083984375
1702338723065129700,48.947129638671875,9.849868774414062,0.0800628662109375,0.144927978515625
1702338723165868300,49.04786840820312,9.846282958984375,0.0740814208984375,0.1485137939453125
1702338723266606800,49.14860693359375,9.839111328125,0.0872344970703125,0.1401519775390625
1702338723367376000,49.2493759765625,9.85107421875,0.089630126953125,0.156890869140625
1702338723468083700,49.350083740234375,9.846282958984375,0.0872344970703125,0.1341552734375
1702338723568791800,49.450791748046875,9.82952880859375,0.0812530517578125,0.1533050537109375
1702338723669530400,49.5515302734375,9.837905883789062,0.08843994140625,0.128173828125
1702338723770238500,49.65223852539062,9.82952880859375,0.0932159423828125,0.14971923828125
1702338723870977000,49.75297705078125,9.866622924804688,0.07647705078125,0.1485137939453125
1702338723971684900,49.853684814453125,9.8690185546875,0.0860443115234375,0.1401519775390625
1702338724072423400,49.95442333984375,9.846282958984375,0.0968017578125,0.16168212890625
1702338724173192400,50.0551923828125,9.848678588867188,0.0812530517578125,0.1580963134765625
1702338724273931000,50.155930908203125,9.843887329101562,0.089630126953125,0.1592864990234375
1702338724374639000,50.25663916015625,9.853469848632812,0.095611572265625,0.14971923828125
1702338724475377700,50.35737768554687,9.846282958984375,0.083648681640625,0.150909423828125
1702338724576085500,50.45808544921875,9.858245849609375,0.0908203125,0.1592864990234375
1702338724676824000,50.558823974609375,9.840301513671875,0.089630126953125,0.1461334228515625
1702338724777562600,50.65956274414062,9.82952880859375,0.09442138671875,0.13775634765625
1702338724878301200,50.76030126953125,9.843887329101562,0.0872344970703125,0.1473236083984375
1702338724979039700,50.86103979492187,9.810394287109375,0.0968017578125,0.1305694580078125
1702338725079778300,50.9617783203125,9.842697143554688,0.0932159423828125,0.156890869140625
1702338725180516600,51.0625166015625,9.828338623046875,0.0980072021484375,0.15570068359375
1702338725281255200,51.163255126953125,9.839111328125,0.0968017578125,0.1461334228515625
1702338725382011400,51.264011474609376,9.828338623046875,0.0800628662109375,0.14971923828125
1702338725482780400,51.364780517578126,9.830734252929688,0.0812530517578125,0.1485137939453125
1702338725583518700,51.46551879882813,9.83551025390625,0.083648681640625,0.15570068359375
1702338725684257300,51.56625732421875,9.854660034179688,0.0848388671875,0.1401519775390625
1702338725785026300,51.6670263671875,9.8450927734375,0.09442138671875,0.138946533203125
1702338725885764900,51.76776489257813,9.854660034179688,0.089630126953125,0.14373779296875
1702338725986473000,51.86847290039063,9.837905883789062,0.0980072021484375,0.1533050537109375
1702338726087211500,51.96921142578125,9.81158447265625,0.0908203125,0.1413421630859375
1702338726187919400,52.06991943359375,9.822357177734375,0.07647705078125,0.150909423828125
1702338726288688600,52.170688720703126,9.846282958984375,0.095611572265625,0.1592864990234375
1702338726389427000,52.27142700195313,9.85107421875,0.0860443115234375,0.1485137939453125
1702338726490135000,52.37213500976563,9.840301513671875,0.08245849609375,0.1544952392578125
1702338726590843100,52.47284301757813,9.83551025390625,0.089630126953125,0.14373779296875
1702338726691551000,52.57355102539063,9.839111328125,0.0800628662109375,0.1544952392578125
1702338726792289500,52.67428955078125,9.825942993164062,0.08843994140625,0.1521148681640625
1702338726892997600,52.77499755859375,9.84149169921875,0.08843994140625,0.1521148681640625
1702338726993736200,52.87573608398438,9.852264404296875,0.089630126953125,0.1604766845703125
1702338727094444000,52.97644409179688,9.84149169921875,0.0848388671875,0.150909423828125
1702338727195182600,53.0771826171875,9.8331298828125,0.0872344970703125,0.1365509033203125
1702338727295921200,53.17792114257813,9.818771362304688,0.0872344970703125,0.1485137939453125
1702338727396690200,53.27869018554688,9.818771362304688,0.083648681640625,0.14971923828125
1702338727497398300,53.37939819335938,9.8331298828125,0.08245849609375,0.144927978515625
1702338727598136800,53.48013671875,9.8271484375,0.0800628662109375,0.150909423828125
1702338727698875400,53.58087548828125,9.830734252929688,0.0740814208984375,0.1305694580078125
1702338727799644400,53.68164453125,9.842697143554688,0.0860443115234375,0.1425323486328125
1702338727900383000,53.782383056640626,9.847488403320312,0.089630126953125,0.1544952392578125
1702338728001152000,53.883152099609376,9.822357177734375,0.0980072021484375,0.13177490234375
1702338728101890300,53.98389038085938,9.8450927734375,0.09442138671875,0.13775634765625
1702338728202628900,54.08462890625,9.839111328125,0.0968017578125,0.1485137939453125
1702338728303367400,54.18536743164063,9.83551025390625,0.0920257568359375,0.13775634765625
1702338728404075500,54.28607543945313,9.8570556640625,0.0872344970703125,0.13775634765625
1702338728504814000,54.38681396484375,9.831924438476562,0.0991973876953125,0.144927978515625
1702338728605552600,54.487552734375,9.849868774414062,0.0812530517578125,0.1365509033203125
1702338728706291000,54.588291015625,9.83551025390625,0.08843994140625,0.14971923828125
1702338728807060000,54.68906005859375,9.825942993164062,0.0860443115234375,0.1544952392578125
1702338728907768000,54.78976806640625,9.842697143554688,0.078857421875,0.15570068359375
1702338729008537000,54.890537109375,9.8271484375,0.09442138671875,0.150909423828125
1702338729109275600,54.99127563476563,9.846282958984375,0.0860443115234375,0.1365509033203125
1702338729210014200,55.09201416015625,9.83551025390625,0.08245849609375,0.13775634765625
1702338729310783200,55.192783203125,9.849868774414062,0.08843994140625,0.14373779296875
1702338729411491300,55.2934912109375,9.8450927734375,0.071685791015625,0.150909423828125
1702338729512230000,55.39422998046875,9.84149169921875,0.0848388671875,0.138946533203125
1702338729612937700,55.49493774414063,9.84149169921875,0.0848388671875,0.1521148681640625
1702338729713676300,55.59567626953125,9.848678588867188,0.0848388671875,0.14373779296875
1702338729814414800,55.69641479492188,9.847488403320312,0.078857421875,0.14373779296875
1702338729915153400,55.7971533203125,9.855850219726562,0.083648681640625,0.1341552734375
1702338730015861200,55.897861328125,9.834320068359375,0.083648681640625,0.1461334228515625
1702338730116599800,55.99859985351563,9.8570556640625,0.0848388671875,0.156890869140625
1702338730217338400,56.09933837890625,9.861831665039062,0.089630126953125,0.1425323486328125
1702338730318077000,56.20007690429688,9.843887329101562,0.0633087158203125,0.1353607177734375
1702338730418785000,56.30078491210938,9.860641479492188,0.0872344970703125,0.14971923828125
1702338730519523600,56.401523681640626,9.85107421875,0.08245849609375,0.14373779296875
1702338730620231400,56.5022314453125,9.852264404296875,0.0680999755859375,0.1533050537109375
1702338730720970000,56.60296997070313,9.843887329101562,0.0800628662109375,0.1461334228515625
1702338730821678000,56.70367797851563,9.842697143554688,0.0932159423828125,0.14373779296875
1702338730922416600,56.804416748046876,9.831924438476562,0.0860443115234375,0.1413421630859375
1702338731023155000,56.90515502929688,9.8450927734375,0.09442138671875,0.1461334228515625
1702338731123893500,57.0058935546875,9.861831665039062,0.0860443115234375,0.132965087890625
1702338731224601600,57.1066015625,9.82952880859375,0.09442138671875,0.14971923828125
1702338731325309700,57.207309814453126,9.846282958984375,0.095611572265625,0.144927978515625
1702338731426048300,57.30804833984375,9.830734252929688,0.08843994140625,0.1401519775390625
1702338731526786600,57.40878662109375,9.822357177734375,0.0812530517578125,0.1592864990234375
1702338731627494700,57.50949462890625,9.839111328125,0.0980072021484375,0.14373779296875
1702338731728233200,57.61023315429688,9.84149169921875,0.0680999755859375,0.1473236083984375
1702338731828971800,57.7109716796875,9.836715698242188,0.089630126953125,0.1544952392578125
1702338731929679600,57.8116796875,9.847488403320312,0.0908203125,0.156890869140625
1702338732030418200,57.91241821289063,9.831924438476562,0.0848388671875,0.1533050537109375
1702338732131126300,58.01312622070313,9.84149169921875,0.0872344970703125,0.15570068359375
1702338732231895300,58.11389526367188,9.84149169921875,0.0908203125,0.1425323486328125
1702338732332633900,58.2146337890625,9.819961547851562,0.078857421875,0.1485137939453125
1702338732433372400,58.31537231445313,9.840301513671875,0.08245849609375,0.1580963134765625
1702338732534080300,58.41608032226563,9.848678588867188,0.0848388671875,0.1413421630859375
1702338732634818800,58.51681884765625,9.837905883789062,0.0752716064453125,0.1353607177734375
1702338732735527000,58.61752685546875,9.843887329101562,0.08245849609375,0.144927978515625
1702338732836265500,58.71826538085938,9.824752807617188,0.0920257568359375,0.1473236083984375
1702338732937004000,58.819004150390626,9.82354736328125,0.0848388671875,0.1401519775390625
1702338733037712000,58.9197119140625,9.847488403320312,0.1039886474609375,0.1461334228515625
1702338733138481000,59.02048095703125,9.8271484375,0.08843994140625,0.14373779296875
1702338733239189000,59.12118896484375,9.846282958984375,0.0932159423828125,0.1365509033203125
1702338733339958000,59.2219580078125,9.824752807617188,0.095611572265625,0.1413421630859375
1702338733440666000,59.322666015625,9.830734252929688,0.089630126953125,0.150909423828125
1702338733541404700,59.42340478515625,9.839111328125,0.0812530517578125,0.16168212890625
1702338733642143000,59.52414306640625,9.854660034179688,0.089630126953125,0.1652679443359375
1702338733742881500,59.62488159179688,9.839111328125,0.089630126953125,0.1544952392578125
1702338733843620000,59.7256201171875,9.843887329101562,0.0920257568359375,0.14971923828125
1702338733944358700,59.82635864257813,9.8331298828125,0.0991973876953125,0.1341552734375
1702338734045127700,59.92712768554688,9.82354736328125,0.0860443115234375,0.1544952392578125
1702338734145866200,60.0278662109375,9.85107421875,0.0932159423828125,0.15570068359375
1702338734246635300,60.12863525390625,9.83551025390625,0.0968017578125,0.1413421630859375
1702338734347373800,60.22937377929688,9.84149169921875,0.08245849609375,0.1485137939453125
1702338734448082000,60.33008203125,9.83551025390625,0.0872344970703125,0.14373779296875
1702338734548789800,60.43078979492188,9.83551025390625,0.089630126953125,0.1592864990234375
1702338734649528300,60.5315283203125,9.824752807617188,0.089630126953125,0.1365509033203125
1702338734750267000,60.63226684570313,9.847488403320312,0.089630126953125,0.15570068359375
1702338734851005400,60.73300537109375,9.8331298828125,0.0932159423828125,0.1401519775390625
1702338734951744000,60.83374389648438,9.85107421875,0.0980072021484375,0.1353607177734375
1702338735052482600,60.934482666015626,9.8331298828125,0.0920257568359375,0.1544952392578125
1702338735153220900,61.03522094726563,9.834320068359375,0.0704803466796875,0.1533050537109375
1702338735253959400,61.13595947265625,9.843887329101562,0.0932159423828125,0.132965087890625
1702338735354667500,61.23666748046875,9.831924438476562,0.08843994140625,0.1461334228515625
1702338735455436500,61.3374365234375,9.867813110351562,0.0908203125,0.15570068359375
1702338735556175000,61.43817504882813,9.836715698242188,0.0860443115234375,0.1461334228515625
1702338735656883200,61.53888330078125,9.848678588867188,0.095611572265625,0.1664581298828125
1702338735757591000,61.63959106445313,9.82952880859375,0.0920257568359375,0.14971923828125
1702338735858329600,61.74032958984375,9.82354736328125,0.0872344970703125,0.1485137939453125
1702338735959007200,61.84100732421875,9.843887329101562,0.0920257568359375,0.1461334228515625
1702338736059715000,61.94171508789063,9.82354736328125,0.0908203125,0.1533050537109375
1702338736160392700,62.042392822265626,9.846282958984375,0.083648681640625,0.1544952392578125
1702338736261100500,62.1431005859375,9.84149169921875,0.0920257568359375,0.1461334228515625
1702338736361808600,62.24380859375,9.831924438476562,0.0932159423828125,0.1521148681640625
1702338736462547200,62.34454711914063,9.836715698242188,0.06689453125,0.144927978515625
1702338736563314200,62.44531420898438,9.824752807617188,0.0872344970703125,0.1413421630859375
1702338736664022000,62.54602197265625,9.848678588867188,0.0728759765625,0.1425323486328125
1702338736764791300,62.64679125976563,9.830734252929688,0.083648681640625,0.1473236083984375
1702338736865499100,62.7474990234375,9.84149169921875,0.089630126953125,0.1521148681640625
1702338736966237700,62.84823779296875,9.828338623046875,0.0704803466796875,0.1485137939453125
1702338737066976300,62.94897631835938,9.837905883789062,0.0920257568359375,0.1461334228515625
1702338737167714800,63.04971484375,9.836715698242188,0.0872344970703125,0.132965087890625
1702338737268422700,63.15042260742187,9.848678588867188,0.0932159423828125,0.1592864990234375
1702338737369161200,63.2511611328125,9.825942993164062,0.0920257568359375,0.1293792724609375
1702338737469930200,63.35193017578125,9.83551025390625,0.09442138671875,0.14373779296875
1702338737570668800,63.45266870117187,9.860641479492188,0.0908203125,0.1425323486328125
1702338737671437800,63.55343774414062,9.83551025390625,0.0920257568359375,0.1473236083984375
1702338737772176400,63.65417626953125,9.824752807617188,0.0908203125,0.156890869140625
1702338737872945400,63.7549453125,9.852264404296875,0.0812530517578125,0.156890869140625
1702338737973684000,63.85568408203125,9.839111328125,0.071685791015625,0.1413421630859375
1702338738074392000,63.95639208984375,9.824752807617188,0.0860443115234375,0.132965087890625
1702338738175161000,64.0571611328125,9.840301513671875,0.0860443115234375,0.16168212890625
1702338738275899600,64.15789965820312,9.854660034179688,0.08843994140625,0.1485137939453125
1702338738376638200,64.25863818359375,9.853469848632812,0.0980072021484375,0.1401519775390625
1702338738477376500,64.35937646484375,9.8271484375,0.0812530517578125,0.1413421630859375
1702338738578115000,64.46011499023437,9.865432739257812,0.071685791015625,0.128173828125
1702338738678853600,64.560853515625,9.83551025390625,0.0860443115234375,0.1544952392578125
1702338738779592200,64.66159228515625,9.8331298828125,0.089630126953125,0.1365509033203125
1702338738880300300,64.76230029296875,9.82952880859375,0.0920257568359375,0.138946533203125
1702338738981038800,64.86303881835937,9.848678588867188,0.08843994140625,0.1544952392578125
1702338739081777200,64.96377709960937,9.8331298828125,0.0908203125,0.1413421630859375
1702338739182485200,65.0644853515625,9.84149169921875,0.08843994140625,0.1485137939453125
1702338739283193300,65.165193359375,9.849868774414062,0.0752716064453125,0.150909423828125
1702338739383932000,65.26593188476562,9.84149169921875,0.089630126953125,0.144927978515625
1702338739484639700,65.3666396484375,9.84149169921875,0.0968017578125,0.150909423828125
1702338739585378300,65.46737841796875,9.8271484375,0.089630126953125,0.14971923828125
1702338739686086400,65.56808642578125,9.8271484375,0.095611572265625,0.138946533203125
1702338739786794200,65.66879418945312,9.85107421875,0.0932159423828125,0.1580963134765625
1702338739887532800,65.76953271484375,9.8570556640625,0.095611572265625,0.1401519775390625
1702338739988271400,65.87027124023437,9.849868774414062,0.089630126953125,0.144927978515625
1702338740088979500,65.9709794921875,9.843887329101562,0.08843994140625,0.1544952392578125
1702338740189687300,66.07168725585937,9.84149169921875,0.0860443115234375,0.1521148681640625
1702338740290456600,66.17245654296875,9.85107421875,0.0872344970703125,0.150909423828125
1702338740391195000,66.27319482421875,9.843887329101562,0.0920257568359375,0.1341552734375
1702338740491933400,66.37393334960937,9.847488403320312,0.0968017578125,0.14373779296875
1702338740592672000,66.47467211914062,9.824752807617188,0.089630126953125,0.156890869140625
1702338740693380000,66.57538012695312,9.843887329101562,0.0908203125,0.1413421630859375
1702338740794118700,66.67611865234375,9.85107421875,0.08843994140625,0.132965087890625
1702338740894887700,66.7768876953125,9.854660034179688,0.0848388671875,0.1485137939453125
1702338740995595500,66.87759545898437,9.855850219726562,0.09442138671875,0.13775634765625
1702338741169378800,67.05137890625,9.886367797851562,0.0848388671875,0.1413421630859375
1702338741294714400,67.17671435546875,9.894149780273438,0.086029052734375,0.129974365234375
1702338741419683800,67.30168383789062,9.906112670898438,0.0872344970703125,0.1407470703125
1702338741544653300,67.4266533203125,9.88995361328125,0.086639404296875,0.1407470703125
1702338741669592300,67.55159228515625,9.8995361328125,0.08184814453125,0.1443328857421875
1702338741794561800,67.67656176757812,9.886367797851562,0.0842437744140625,0.145538330078125
1702338741919531300,67.80153125,9.889358520507812,0.0842437744140625,0.1407470703125
1702338742044500700,67.92650073242187,9.876190185546875,0.07586669921875,0.1413421630859375
1702338742169439700,68.05143969726562,9.894744873046875,0.0752716064453125,0.1491241455078125
1702338742294409200,68.1764091796875,9.8929443359375,0.078857421875,0.134765625
1702338742419409200,68.3014091796875,9.889358520507812,0.0848388671875,0.1431427001953125
1702338742544378600,68.42637866210937,9.892349243164062,0.07586669921875,0.1353607177734375
1702338742669348000,68.55134814453125,9.88995361328125,0.0824432373046875,0.142547607421875
1702338742794317600,68.67631762695312,9.905517578125,0.07586669921875,0.1293792724609375
1702338742919287300,68.80128735351562,9.90191650390625,0.086029052734375,0.1371612548828125
1702338743044226000,68.92622607421875,9.885162353515625,0.08184814453125,0.14373779296875
1702338743169195500,69.05119555664062,9.886367797851562,0.0842437744140625,0.14373779296875
1702338743294134500,69.17613452148437,9.88995361328125,0.08184814453125,0.1287841796875
1702338743419104000,69.30110400390625,9.906112670898438,0.0764617919921875,0.138946533203125
1702338743544073500,69.42607348632812,9.886367797851562,0.074676513671875,0.139556884765625
1702338743669043000,69.55104296875,9.895339965820312,0.0842437744140625,0.1293792724609375
1702338743794012400,69.67601245117187,9.894744873046875,0.080657958984375,0.135955810546875
1702338743918951400,69.80095141601562,9.894744873046875,0.0800628662109375,0.138946533203125
1702338744043921000,69.9259208984375,9.900131225585938,0.0854339599609375,0.135955810546875
1702338744168860000,70.05085986328125,9.89593505859375,0.089630126953125,0.138946533203125
1702338744293829400,70.17582934570312,9.888763427734375,0.0854339599609375,0.136566162109375
1702338744418738000,70.30073803710937,9.888168334960938,0.1009979248046875,0.14373779296875
1702338744543707400,70.42570727539062,9.875,0.0950164794921875,0.1365509033203125
1702338744668676900,70.5506767578125,9.8875732421875,0.093231201171875,0.1407470703125
1702338744793616000,70.67561596679687,9.90252685546875,0.080657958984375,0.139556884765625
1702338744918585300,70.80058544921874,9.903717041015625,0.080657958984375,0.1491241455078125
1702338745043585300,70.92558520507812,9.899520874023438,0.0794525146484375,0.1389617919921875
1702338745168554800,71.0505546875,9.89593505859375,0.083648681640625,0.132965087890625
1702338745293493800,71.17549365234375,9.895339965820312,0.078857421875,0.1407470703125
1702338745418463200,71.30046313476562,9.928237915039062,0.0860443115234375,0.1401519775390625
1702338745543463200,71.42546313476562,9.965927124023438,0.0848388671875,0.1281890869140625
1702338745668402200,71.55040209960937,9.9713134765625,0.1099700927734375,0.0390472412109375
1702338745793371600,71.67537158203125,9.87799072265625,0.1057891845703125,-0.0183868408203125
1702338745918341000,71.80034106445312,9.84808349609375,0.11834716796875,1.744537353515625
1702338746043310600,71.925310546875,9.999435424804688,0.17279052734375,-0.56573486328125
1702338746168310500,72.050310546875,10.073013305664062,-0.2890472412109375,0.17962646484375
1702338746293249500,72.17524951171875,10.026351928710938,-0.3847503662109375,-0.3743133544921875
1702338746418219000,72.30021899414062,9.365936279296875,-0.1652069091796875,-2.18389892578125
1702338746553198300,72.4351982421875,9.94439697265625,-0.214263916015625,-1.5874786376953125
1702338746657071400,72.5390712890625,10.011383056640625,0.3025970458984375,-0.9773101806640625
1702338746757748700,72.63974877929688,11.444686889648438,-0.0479583740234375,-2.0564727783203125
1702338746858426400,72.74042626953126,9.608200073242188,0.59332275390625,-0.77630615234375
1702338746959103700,72.84110375976563,12.047683715820312,0.4688873291015625,-2.16534423828125
1702338747172418600,73.05441845703125,8.382476806640625,1.8537445068359375,-3.9174957275390625
1702338747297784800,73.17978491210937,8.962142944335938,2.49322509765625,-5.5374298095703125
1702338747422723800,73.30472387695312,8.0474853515625,3.333709716796875,-4.64251708984375
1702338747547693300,73.429693359375,8.180282592773438,4.75982666015625,-2.229949951171875
1702338747672662800,73.55466284179687,8.791061401367188,5.6326141357421875,0.163482666015625
1702338747797601800,73.67960180664062,6.38507080078125,5.9867401123046875,4.427490234375
1702338747922540500,73.80454052734375,3.1081085205078125,6.1476593017578125,7.2540130615234375
1702338748047510000,73.92951000976562,1.2829742431640625,6.8888397216796875,7.2270965576171875
1702338748172449000,74.05444897460937,2.13720703125,6.853546142578125,8.598785400390625
1702338748297418500,74.17941845703125,2.5302276611328125,6.70159912109375,5.9206085205078125
1702338748422327000,74.3043271484375,7.1998291015625,5.579376220703125,3.467376708984375
1702338748547230700,74.42923071289063,8.1551513671875,2.7612152099609375,6.67315673828125
1702338748672200200,74.5542001953125,8.216171264648438,0.375579833984375,5.8081512451171875
1702338748797139200,74.67913916015625,9.058456420898438,-0.197509765625,0.24005126953125
1702338748922078000,74.80407788085938,9.717086791992188,-0.5845489501953125,0.72998046875
1702338749047047700,74.92904760742188,10.247085571289062,-0.3476715087890625,-0.4108123779296875
1702338749172017200,75.05401708984375,9.429931640625,-1.3347015380859375,-2.3160858154296875
1702338749296956000,75.17895581054688,8.631332397460938,-1.0762786865234375,-3.3043212890625
1702338749421925400,75.30392529296876,10.519866943359375,-0.340484619140625,-1.8740234375
1702338749546864400,75.42886450195313,8.602615356445312,-0.3955230712890625,-3.1553802490234375
1702338749671803400,75.55380346679688,10.15435791015625,0.1853485107421875,-2.473419189453125
1702338749796772900,75.67877294921875,8.819168090820312,-0.2196502685546875,-0.9934539794921875
1702338749921711900,75.8037119140625,9.821762084960938,-0.018646240234375,-0.1224822998046875
1702338750046681300,75.92868139648438,9.88995361328125,0.0214385986328125,0.064178466796875
1702338750171620400,76.05362036132813,9.892349243164062,0.0244293212890625,0.1144256591796875
1702338750296589800,76.17858984375,9.882171630859375,0.0214385986328125,0.10125732421875
1702338750421559300,76.30355932617188,9.88397216796875,0.0226287841796875,0.1042633056640625
1702338750546467800,76.4284677734375,9.892349243164062,0.0100555419921875,0.1204071044921875
1702338750671437300,76.55343725585938,9.879196166992188,0.02801513671875,0.11981201171875
1702338750796376000,76.6783759765625,9.891159057617188,0.0046844482421875,0.0994720458984375
1702338750921315000,76.80331518554688,9.894744873046875,0.0166473388671875,0.1024627685546875
1702338751046254000,76.92825415039063,9.900131225585938,0.0106658935546875,0.112640380859375
1702338751171193000,77.05319311523438,9.907302856445312,0.0160369873046875,0.100067138671875
1702338751296132000,77.17813208007813,9.880386352539062,0.03399658203125,0.104248046875
1702338751421101600,77.3031015625,9.879791259765625,0.0148468017578125,0.0994720458984375
1702338751546040600,77.42804052734375,9.89654541015625,0.0136566162109375,0.115631103515625
1702338751691067000,77.57306689453125,9.824752807617188,0.0058746337890625,0.0994720458984375
1702338751791774700,77.67377465820313,9.849868774414062,0.026214599609375,0.1245880126953125
1702338751892482800,77.77448291015625,9.839111328125,0.0274200439453125,0.103057861328125
1702338752160415500,78.04241552734375,9.8935546875,0.011260986328125,0.115020751953125
1702338752285751000,78.1677509765625,9.903121948242188,0.0136566162109375,0.10784912109375
1702338752410720500,78.29272045898438,9.885772705078125,0.01007080078125,0.1018524169921875
1702338752535659500,78.41765942382813,9.905517578125,0.0106658935546875,0.100067138671875
1702338752660629000,78.54262890625,9.89654541015625,0.0106658935546875,0.0976715087890625
1702338752785598500,78.66759838867188,9.89593505859375,0.0184478759765625,0.0934906005859375
1702338752910537500,78.79253735351563,9.892349243164062,0.0208282470703125,0.100067138671875
1702338753035537400,78.91753735351563,9.888763427734375,0.014251708984375,0.1114349365234375
1702338753160507000,79.0425068359375,9.8929443359375,0.0088653564453125,0.11383056640625
1702338753285476400,79.16747631835938,9.888763427734375,0.0076751708984375,0.1072540283203125
1702338753410445800,79.29244580078125,9.897735595703125,0.017242431640625,0.1036529541015625
1702338753535384800,79.417384765625,9.8929443359375,0.0226287841796875,0.1018524169921875
1702338753660384800,79.542384765625,9.8929443359375,0.0196380615234375,0.097076416015625
1702338753785354200,79.66735424804688,9.889358520507812,0.032196044921875,0.0994720458984375
1702338753910323700,79.79232373046875,9.892349243164062,0.0136566162109375,0.1036529541015625
1702338754035293400,79.91729345703125,9.89654541015625,0.020233154296875,0.10723876953125
1702338754160263000,80.04226293945312,9.875,0.0136566162109375,0.112030029296875
1702338754285232400,80.167232421875,9.873214721679688,0.00946044921875,0.1162261962890625
1702338754410171100,80.29217114257813,9.886367797851562,0.011260986328125,0.10784912109375
1702338754535140600,80.417140625,9.883377075195312,0.02203369140625,0.109039306640625
1702338754660079600,80.54207958984375,9.871414184570312,0.020233154296875,0.1126251220703125
1702338754785079800,80.66707983398437,9.900131225585938,0.0106658935546875,0.109039306640625
1702338754910049300,80.79204931640625,9.87799072265625,0.020233154296875,0.1132354736328125
1702338755035018800,80.91701879882812,9.879791259765625,0.017242431640625,0.1024627685546875
1702338755160018700,81.04201879882812,9.883377075195312,0.0136566162109375,0.100067138671875
1702338755284988200,81.16698828125,9.895339965820312,0.0226287841796875,0.109039306640625
1702338755409988000,81.29198803710938,9.840911865234375,0.0327911376953125,0.1042633056640625
1702338755534957600,81.41695751953125,9.883377075195312,0.0244293212890625,0.0982818603515625
1702338755659896600,81.541896484375,9.898330688476562,0.0166473388671875,0.1048583984375
1702338755784866000,81.66686596679688,9.88458251953125,0.0238189697265625,0.100067138671875
1702338755909805000,81.79180517578125,9.8929443359375,0.0244293212890625,0.1042633056640625
1702338756034744000,81.916744140625,9.873809814453125,0.0136566162109375,0.1006622314453125
1702338756159713500,82.04171362304687,9.90191650390625,0.011260986328125,0.100067138671875
1702338756284652500,82.16665258789062,9.885772705078125,0.020233154296875,0.1144256591796875
1702338756409622000,82.2916220703125,9.891754150390625,0.01605224609375,0.1126251220703125
1702338756534591500,82.41659155273437,9.904312133789062,0.0130462646484375,0.1102447509765625
1702338756659530500,82.54153051757812,9.883377075195312,0.0196380615234375,0.0994720458984375
1702338756784500000,82.6665,9.898330688476562,0.007080078125,0.1012725830078125
1702338756909438700,82.79143872070313,9.898330688476562,0.01904296875,0.1102447509765625
1702338757034408200,82.916408203125,9.870223999023438,0.0148468017578125,0.1066436767578125
1702338757159377700,83.04137768554688,9.900115966796875,0.0226287841796875,0.1042633056640625
1702338757284347400,83.16634741210937,9.891754150390625,0.0154571533203125,0.0982666015625
1702338757409286100,83.2912861328125,9.896530151367188,0.0166473388671875,0.1024627685546875
1702338757534255600,83.41625561523438,9.89892578125,0.0208282470703125,0.1114349365234375
1702338757659225000,83.54122509765625,9.878585815429688,0.0238189697265625,0.1036529541015625
1702338757784194600,83.66619458007813,9.898330688476562,0.0226287841796875,0.104248046875
1702338757909164300,83.79116430664062,9.90252685546875,0.020233154296875,0.106048583984375
1702338758034103000,83.91610302734375,9.897140502929688,0.014251708984375,0.1006622314453125
1702338758159072500,84.04107250976563,9.905502319335938,0.020843505859375,0.0863037109375
1702338758284011500,84.16601147460938,9.89654541015625,0.0208282470703125,0.0952911376953125
1702338758408981000,84.29098095703125,9.889358520507812,0.008270263671875,0.1042633056640625
1702338758533950500,84.41595043945313,9.870819091796875,0.0250244140625,0.1012725830078125
1702338758658920000,84.540919921875,9.89892578125,0.02142333984375,0.103057861328125
1702338758783889400,84.66588940429688,9.892349243164062,0.005279541015625,0.112030029296875
1702338758908859000,84.79085888671875,9.888763427734375,0.0148468017578125,0.10186767578125
1702338759033828400,84.91582836914063,9.89056396484375,0.0238189697265625,0.0934906005859375
1702338759158798000,85.04079809570312,9.902511596679688,0.01904296875,0.097076416015625
1702338759283767600,85.165767578125,9.891754150390625,0.0178375244140625,0.10186767578125
1702338759408737000,85.29073706054687,9.8995361328125,0.014251708984375,0.1036529541015625
1702338759533706500,85.41570654296875,9.86602783203125,0.0130615234375,0.10723876953125
1702338759658706400,85.54070654296875,9.88995361328125,0.0154571533203125,0.098876953125
1702338759783676000,85.66567602539062,9.897735595703125,0.0226287841796875,0.1012725830078125
1702338759908645400,85.79064526367188,9.888168334960938,0.0076751708984375,0.1048583984375
1702338760033614800,85.91561474609375,9.885772705078125,0.0196380615234375,0.1036529541015625
1702338760158584300,86.04058422851563,9.894149780273438,0.01904296875,0.11383056640625
1702338760283553800,86.1655537109375,9.895339965820312,0.0256195068359375,0.0875091552734375
1702338760408523300,86.29052319335938,9.872604370117188,0.020233154296875,0.1132354736328125
1702338760533492700,86.41549267578125,9.8875732421875,0.0130615234375,0.103057861328125
1702338760658462200,86.54046215820313,9.901321411132812,0.0160369873046875,0.1072540283203125
1702338760783447800,86.66544775390625,9.892349243164062,0.01605224609375,0.1102447509765625
1702338760908417300,86.79041723632812,9.89654541015625,0.0166473388671875,0.098876953125
1702338761033356300,86.91535620117187,9.898330688476562,0.0130615234375,0.1054534912109375
1702338761158325800,87.04032568359375,9.900726318359375,0.0208282470703125,0.1066436767578125
1702338761283295200,87.16529516601562,9.898330688476562,0.0208282470703125,0.115020751953125
1702338761408264700,87.2902646484375,9.879196166992188,0.01904296875,0.109039306640625
1702338761533234200,87.41523413085937,9.891159057617188,0.0184478759765625,0.10784912109375
1702338761658173200,87.54017309570312,9.902511596679688,0.0178375244140625,0.1036529541015625
1702338761783142700,87.665142578125,9.894744873046875,0.0106658935546875,0.0976715087890625
1702338761908081700,87.79008154296875,9.895339965820312,0.020843505859375,0.097076416015625
1702338762033051100,87.91505102539062,9.901321411132812,0.0130615234375,0.10186767578125
1702338762157990100,88.039990234375,9.897735595703125,0.0106658935546875,0.10784912109375
1702338762282959600,88.16495971679687,9.892349243164062,0.017242431640625,0.1126251220703125
1702338762407929000,88.28992919921875,9.90252685546875,0.0136566162109375,0.1096343994140625
1702338762532898600,88.41489868164062,9.895339965820312,0.0184326171875,0.0964813232421875
1702338762657898500,88.5398984375,9.897735595703125,0.0208282470703125,0.1066436767578125
1702338762782868000,88.66486791992187,9.889358520507812,0.0148468017578125,0.100067138671875
1702338762907837700,88.78983764648437,9.891159057617188,0.0064697265625,0.1048583984375
1702338763032807200,88.91480712890625,9.898330688476562,0.0178375244140625,0.10784912109375
1702338763157746000,89.03974584960937,9.906112670898438,0.002288818359375,0.1036529541015625
1702338763282715400,89.16471533203125,9.906707763671875,0.008270263671875,0.0946807861328125
1702338763407684900,89.28968481445312,9.891143798828125,0.0208282470703125,0.0976715087890625
1702338763532654600,89.41465454101562,9.89892578125,0.02203369140625,0.09588623046875
1702338763657593300,89.53959326171875,9.888763427734375,0.0208282470703125,0.0923004150390625
1702338763782562800,89.66456274414062,9.9049072265625,0.0196380615234375,0.0988616943359375
1702338763907501800,89.78950170898437,9.904922485351562,0.0184326171875,0.0928955078125
1702338764032471300,89.91447119140625,9.8929443359375,0.0214385986328125,0.1006622314453125
1702338764157440800,90.03944067382812,9.895339965820312,0.0136566162109375,0.0904998779296875
1702338764282410200,90.16441015625,9.888763427734375,0.0130615234375,0.10784912109375
1702338764407379700,90.28937963867187,9.903717041015625,0.0094757080078125,0.1036529541015625
1702338764532318700,90.41431860351562,9.885162353515625,0.0088653564453125,0.098876953125
1702338764657288200,90.5392880859375,9.88458251953125,0.0130462646484375,0.0994720458984375
1702338764782257700,90.66425756835937,9.897140502929688,0.01605224609375,0.100677490234375
1702338764907227100,90.78922705078125,9.88397216796875,0.0208282470703125,0.109649658203125
1702338765032196600,90.91419653320312,9.900131225585938,0.0148468017578125,0.103057861328125
1702338765157196800,91.03919677734375,9.883377075195312,0.0118560791015625,0.1066436767578125
1702338765282166300,91.16416625976562,9.896530151367188,0.020843505859375,0.0904998779296875
1702338765407135700,91.2891357421875,9.893539428710938,0.01605224609375,0.1048583984375
1702338765532074800,91.41407470703125,9.909698486328125,0.0196380615234375,0.100067138671875
1702338765657044200,91.53904418945312,9.922256469726562,0.0076751708984375,0.100677490234375
1702338765781983000,91.66398291015625,9.873809814453125,0.0136566162109375,0.1006622314453125
1702338765906922000,91.788921875,9.882781982421875,0.011260986328125,0.09588623046875
1702338766031922000,91.913921875,9.895339965820312,0.0166473388671875,0.103057861328125
1702338766156861000,92.03886083984375,9.906707763671875,0.0088653564453125,0.1066436767578125
1702338766281830400,92.16383032226562,9.895339965820312,0.0076751708984375,0.094085693359375
1702338766406800000,92.2887998046875,9.900131225585938,0.01544189453125,0.1066436767578125
1702338766531800000,92.41380004882812,9.882186889648438,0.014251708984375,0.09588623046875
1702338766656769500,92.53876953125,9.884567260742188,0.0184478759765625,0.09228515625
1702338766781739000,92.66373901367187,9.900131225585938,0.0184326171875,0.109649658203125
1702338766906708500,92.78870849609375,9.900131225585938,0.020233154296875,0.0994720458984375
1702338767031678000,92.91367797851562,9.879180908203125,0.0088653564453125,0.109039306640625
1702338767156647400,93.0386474609375,9.90191650390625,0.0214385986328125,0.094085693359375
1702338767281586400,93.16358642578125,9.873809814453125,0.0298004150390625,0.0982666015625
1702338767406556000,93.28855590820312,9.879180908203125,0.0184478759765625,0.10125732421875
1702338767531495000,93.41349487304687,9.900726318359375,0.0166473388671875,0.1006622314453125
1702338767656464400,93.53846435546875,9.894134521484375,0.0184326171875,0.106658935546875
1702338767781403100,93.66340307617187,9.900726318359375,0.0166473388671875,0.10784912109375
1702338767906372600,93.78837255859375,9.903121948242188,0.01605224609375,0.0994720458984375
1702338768031311600,93.9133115234375,9.870803833007812,0.0369873046875,0.1072540283203125
1702338768156250600,94.03825073242187,9.879791259765625,0.0214385986328125,0.09527587890625
1702338768281220000,94.16322021484375,9.8995361328125,0.020233154296875,0.0982818603515625
1702338768406189600,94.288189453125,9.91748046875,0.0166473388671875,0.106048583984375
1702338768531128600,94.41312866210937,9.892349243164062,0.017242431640625,0.10186767578125
1702338768656098000,94.53809814453125,9.886962890625,0.020843505859375,0.0928955078125
1702338768781037000,94.663037109375,9.892349243164062,0.0136566162109375,0.1036529541015625
1702338768905976000,94.78797607421875,9.876190185546875,0.0447540283203125,0.1102294921875
1702338769030915000,94.9129150390625,9.891754150390625,0.017242431640625,0.09588623046875
1702338769155884500,95.03788452148437,9.9049072265625,0.0130615234375,0.1144256591796875
1702338769280823300,95.1628232421875,9.89654541015625,0.017242431640625,0.11383056640625
1702338769405762300,95.28776220703125,9.824752807617188,0.0244293212890625,0.106048583984375
1702338769530701300,95.41270141601562,9.890548706054688,0.0166473388671875,0.112030029296875
1702338769655640300,95.53764038085937,9.889358520507812,0.0208282470703125,0.0964813232421875
1702338769780609800,95.66260986328125,9.888168334960938,0.020843505859375,0.09527587890625
1702338769905579300,95.78757934570312,9.889358520507812,0.01007080078125,0.0946807861328125
1702338770030518300,95.91251831054687,9.909103393554688,0.011260986328125,0.094085693359375
1702338770155457300,96.03745727539062,9.89593505859375,0.0160369873046875,0.1024627685546875
1702338770280457200,96.16245727539062,9.868423461914062,0.03338623046875,0.1084442138671875
1702338770405396200,96.28739624023437,9.87799072265625,0.017242431640625,0.1072540283203125
1702338770530335200,96.41233520507812,9.900726318359375,0.0178375244140625,0.0982666015625
1702338770655304700,96.5373046875,9.891159057617188,0.0118560791015625,0.08929443359375
1702338770780243500,96.66224340820312,9.879791259765625,0.0226287841796875,0.10784912109375
1702338770905182500,96.78718237304687,9.876205444335938,0.01904296875,0.0964813232421875
1702338771030121500,96.91212158203125,9.883377075195312,0.0094757080078125,0.112030029296875
1702338771155091000,97.03709106445312,9.898330688476562,0.0064697265625,0.0988616943359375
1702338771280030000,97.16203002929687,9.892349243164062,0.0178375244140625,0.098876953125
1702338771404999400,97.28699951171875,9.8929443359375,0.0076751708984375,0.0946807861328125
1702338771529938400,97.4119384765625,9.897735595703125,0.0046844482421875,0.1054534912109375
1702338771654908000,97.53690795898437,9.892349243164062,0.0208282470703125,0.100067138671875
1702338771779877400,97.66187744140625,9.906707763671875,0.007080078125,0.1042633056640625
1702338771904846800,97.78684692382812,9.89056396484375,0.0136566162109375,0.10723876953125
1702338772029817600,97.91181762695312,9.895339965820312,0.0130615234375,0.106658935546875
1702338772154787000,98.036787109375,9.886962890625,0.0226287841796875,0.097076416015625
1702338772279756500,98.16175659179687,9.881591796875,0.01007080078125,0.1162109375
1702338772404726000,98.28672607421875,9.892349243164062,0.0076751708984375,0.106048583984375
1702338772529695500,98.41169555664062,9.900131225585938,0.0136566162109375,0.1012725830078125
1702338772654665000,98.5366650390625,9.8929443359375,0.0238189697265625,0.1048583984375
1702338772779604000,98.66160400390625,9.892349243164062,0.0226287841796875,0.0934906005859375
1702338772904573400,98.78657348632812,9.903121948242188,0.0118560791015625,0.0976715087890625
1702338773029573600,98.91157373046875,9.902511596679688,0.0088653564453125,0.1006622314453125
1702338773154543000,99.03654321289062,9.901321411132812,0.0148468017578125,0.10784912109375
1702338773279481900,99.16148193359375,9.88995361328125,0.0118560791015625,0.100067138671875
1702338773404420900,99.2864208984375,9.899520874023438,0.0064697265625,0.1072540283203125
1702338773529390300,99.41139038085937,9.886962890625,0.0214385986328125,0.112640380859375
1702338773654329300,99.53632934570312,9.896530151367188,0.0130615234375,0.0952911376953125
1702338773779298800,99.661298828125,9.891754150390625,0.0136566162109375,0.10125732421875
1702338773904268300,99.78626831054687,9.888763427734375,0.005279541015625,0.1006622314453125
1702338774029207300,99.91120727539062,9.897140502929688,0.0214385986328125,0.1084442138671875
1702338774154146300,100.03614624023437,9.885177612304688,0.01904296875,0.0994720458984375
1702338774279115800,100.16111572265625,9.885772705078125,0.0178375244140625,0.0982818603515625
1702338774404085200,100.28608520507812,9.888763427734375,0.014251708984375,0.091094970703125
1702338774529054700,100.4110546875,9.887557983398438,0.0136566162109375,0.0928955078125
1702338774653993700,100.53599365234375,9.905517578125,0.0148468017578125,0.0904998779296875
1702338774778993700,100.66099365234375,9.90191650390625,0.0106658935546875,0.106658935546875
1702338774903963100,100.78596313476562,9.885772705078125,0.012451171875,0.097076416015625
1702338775028902100,100.91090209960937,9.878585815429688,0.0136566162109375,0.104248046875
1702338775153871600,101.03587158203125,9.892349243164062,0.0106658935546875,0.1084442138671875
1702338775278810600,101.160810546875,9.891754150390625,0.0316009521484375,0.104248046875
1702338775403780000,101.28578002929687,9.861831665039062,0.011260986328125,0.098876953125
1702338775528719000,101.41071899414062,9.881576538085938,0.0058746337890625,0.10186767578125
1702338775653688600,101.5356884765625,9.894149780273438,0.0178375244140625,0.10186767578125
1702338775778658000,101.66065795898437,9.870819091796875,0.020233154296875,0.1042633056640625
1702338775903597000,101.78559716796875,9.87200927734375,0.0268096923828125,0.1036529541015625
1702338776028566500,101.91056640625,9.876800537109375,0.020233154296875,0.0934906005859375
1702338776153505500,102.03550561523437,9.889358520507812,0.0118560791015625,0.1084442138671875
1702338776278444300,102.1604443359375,9.876800537109375,0.0070648193359375,0.109039306640625
1702338776403383300,102.28538330078125,9.896530151367188,0.0166473388671875,0.1114349365234375
1702338776528322300,102.410322265625,9.880386352539062,0.0130462646484375,0.0952911376953125
1702338776653291800,102.53529174804687,9.910903930664062,0.0064849853515625,0.1024627685546875
1702338776778230800,102.66023071289062,9.897140502929688,0.0154571533203125,0.1102447509765625
1702338776903169800,102.78516967773437,9.874404907226562,0.0100555419921875,0.1102447509765625
1702338777028139300,102.91013916015625,9.9114990234375,0.017242431640625,0.0964813232421875
1702338777153108700,103.03510864257812,9.895339965820312,0.0208282470703125,0.1072540283203125
1702338777278078200,103.160078125,9.889358520507812,0.0100555419921875,0.09527587890625
1702338777403047700,103.28504760742187,9.897735595703125,0.0178375244140625,0.1066436767578125
1702338777527986700,103.40998657226562,9.898330688476562,0.0196380615234375,0.1066436767578125
1702338777652956200,103.5349560546875,9.87799072265625,0.0160369873046875,0.0964813232421875
1702338777777925600,103.65992553710937,9.885772705078125,0.014251708984375,0.1024627685546875
1702338777902895000,103.78489501953125,9.883377075195312,0.0106658935546875,0.10186767578125
1702338778027834000,103.90983422851562,9.897140502929688,0.01605224609375,0.0976715087890625
1702338778152803600,104.03480346679687,9.89593505859375,0.0178375244140625,0.104248046875
1702338778277742600,104.15974267578125,9.891754150390625,0.017852783203125,0.1006622314453125
1702338778402712000,104.28471215820312,9.894149780273438,0.0196380615234375,0.0934906005859375
1702338778527650800,104.40965087890625,9.898941040039062,0.0088653564453125,0.09588623046875
1702338778652620300,104.53462036132812,9.897140502929688,0.01605224609375,0.0916900634765625
1702338778777559300,104.65955932617187,9.879791259765625,0.0148468017578125,0.1036529541015625
1702338778902498300,104.78449829101562,9.873214721679688,0.03399658203125,0.1048583984375
1702338779027467800,104.9094677734375,9.9049072265625,0.01544189453125,0.1048583984375
1702338779152406800,105.03440673828125,9.8935546875,0.017242431640625,0.100067138671875
1702338779277376300,105.15937622070312,9.885177612304688,0.0046844482421875,0.10186767578125
1702338779402345700,105.284345703125,9.89892578125,0.0136566162109375,0.1054534912109375
1702338779527315200,105.40931518554687,9.885772705078125,0.01904296875,0.104248046875
1702338779652254200,105.53425415039062,9.888168334960938,0.017242431640625,0.100067138671875
1702338779777193200,105.65919311523437,9.882781982421875,0.017242431640625,0.0964813232421875
1702338779902132200,105.78413232421875,9.90191650390625,0.0130462646484375,0.1006622314453125
1702338780027101700,105.90910180664062,9.898330688476562,0.011260986328125,0.0934906005859375
1702338780152071200,106.0340712890625,9.891754150390625,0.0226287841796875,0.0982666015625
1702338780277040600,106.15904052734375,9.894149780273438,0.0088653564453125,0.0982666015625
1702338780401979600,106.28397973632812,9.886962890625,0.0136566162109375,0.0976715087890625
1702338780526949000,106.40894921875,9.884567260742188,0.011260986328125,0.0982818603515625
1702338780651918600,106.53391870117187,9.881591796875,0.0118560791015625,0.0976715087890625
1702338780776888000,106.65888818359375,9.888763427734375,0.0136566162109375,0.10125732421875
1702338780901826800,106.78382690429687,9.912689208984375,0.0136566162109375,0.1054534912109375
1702338781026796500,106.90879663085937,9.88397216796875,0.0166473388671875,0.1084442138671875
1702338781151735300,107.0337353515625,9.906112670898438,0.0178375244140625,0.0904998779296875
1702338781276704800,107.15870483398437,9.882171630859375,0.0130615234375,0.112030029296875
1702338781401643800,107.28364379882812,9.88397216796875,0.01544189453125,0.103057861328125
1702338781526613200,107.40861328125,9.900726318359375,0.008270263671875,0.097076416015625
1702338781651582700,107.53358276367187,9.894744873046875,0.01605224609375,0.10186767578125
1702338781776521700,107.65852172851562,9.897735595703125,0.0016937255859375,0.100067138671875
1702338781901491200,107.7834912109375,9.893539428710938,0.02203369140625,0.103057861328125
1702338782026460700,107.90846069335937,9.881576538085938,0.0100555419921875,0.11083984375
1702338782151393300,108.03339331054687,9.89593505859375,0.012451171875,0.1048583984375
1702338782276362800,108.15836279296875,9.891159057617188,0.0130615234375,0.097076416015625
1702338782401332200,108.28333227539062,9.899520874023438,0.011260986328125,0.10186767578125
1702338782526301700,108.4083017578125,9.879196166992188,0.0244140625,0.1168212890625
1702338782651240700,108.53324072265625,9.894744873046875,0.0130615234375,0.109039306640625
1702338782776210200,108.65821020507812,9.895339965820312,0.0208282470703125,0.1036529541015625
1702338782901179600,108.7831796875,9.886367797851562,0.0184326171875,0.109039306640625
1702338783026149000,108.90814916992187,9.897735595703125,0.020233154296875,0.103057861328125
1702338783151088000,109.03308813476562,9.896530151367188,0.0214385986328125,0.1006622314453125
1702338783276057600,109.1580576171875,9.895339965820312,0.020233154296875,0.10186767578125
1702338783401027000,109.28302709960937,9.864227294921875,0.0345916748046875,0.1084442138671875
1702338783526027000,109.40802709960937,9.886367797851562,0.01904296875,0.0898895263671875
1702338783650966000,109.53296606445312,9.879180908203125,0.014251708984375,0.0994720458984375
1702338783775905000,109.65790502929687,9.882781982421875,0.0148468017578125,0.10723876953125
1702338783900874500,109.78287451171875,9.879791259765625,0.0226287841796875,0.09588623046875
1702338784025844000,109.90784399414062,9.900131225585938,0.031005859375,0.1006622314453125
1702338784150813400,110.0328134765625,9.880386352539062,0.017242431640625,0.091094970703125
1702338784275783000,110.15778295898437,9.881591796875,0.014251708984375,0.1036529541015625
1702338784400752400,110.28275244140625,9.879196166992188,0.0118560791015625,0.1036529541015625
1702338784525691400,110.40769140625,9.899520874023438,0.0148468017578125,0.104248046875
1702338784650630400,110.53263037109375,9.903717041015625,0.017242431640625,0.0994720458984375
1702338784775599900,110.65759985351562,9.894149780273438,0.0244140625,0.09527587890625
1702338784900569300,110.7825693359375,9.905517578125,0.011260986328125,0.1024627685546875
1702338785025569300,110.9075693359375,9.891754150390625,0.0088653564453125,0.1036529541015625
1702338785150508300,111.03250830078125,9.891754150390625,0.014251708984375,0.103057861328125
1702338785275508200,111.15750830078125,9.884567260742188,0.01544189453125,0.106658935546875
1702338785400477700,111.28247778320312,9.897735595703125,0.01544189453125,0.0934906005859375
1702338785525447200,111.407447265625,9.902511596679688,0.0214385986328125,0.0964813232421875
1702338785650386200,111.53238623046875,9.891754150390625,0.0130615234375,0.0934906005859375
1702338785775386400,111.65738647460938,9.888153076171875,0.0166473388671875,0.1006622314453125
1702338785900355800,111.78235595703126,9.89654541015625,0.0118560791015625,0.0934906005859375
1702338786025325300,111.9073251953125,9.897140502929688,0.008270263671875,0.100067138671875
1702338786150264000,112.03226416015625,9.889358520507812,0.011260986328125,0.1102447509765625
1702338786275233800,112.15723388671876,9.8929443359375,0.00946044921875,0.097076416015625
1702338786400172500,112.28217260742187,9.87799072265625,0.02801513671875,0.0982818603515625
1702338786525142000,112.40714208984375,9.89593505859375,0.017242431640625,0.0928955078125
1702338786650111500,112.53211157226562,9.89892578125,0.01605224609375,0.10784912109375
1702338786775081000,112.6570810546875,9.903717041015625,0.01605224609375,0.097076416015625
1702338786900050700,112.78205078125,9.886367797851562,0.0178375244140625,0.109039306640625
1702338787025050600,112.90705053710937,9.903121948242188,0.0208282470703125,0.106048583984375
1702338787150050600,113.03205053710937,9.8875732421875,0.02801513671875,0.10784912109375
1702338787275020000,113.15702001953125,9.885177612304688,0.0088653564453125,0.098876953125
1702338787399989500,113.28198950195312,9.897735595703125,0.012451171875,0.1054534912109375
1702338787524989400,113.40698950195312,9.903121948242188,0.020233154296875,0.097076416015625
1702338787649928400,113.53192846679687,9.889358520507812,0.0118560791015625,0.1024627685546875
1702338787774898000,113.65689794921875,9.881591796875,0.0303955078125,0.0928955078125
1702338787899897900,113.78189794921875,9.891159057617188,0.01544189453125,0.091094970703125
1702338788024867600,113.90686767578126,9.8875732421875,0.012451171875,0.100067138671875
1702338788149837000,114.03183715820313,9.891143798828125,0.012451171875,0.098876953125
1702338788274775800,114.15677587890625,9.900726318359375,0.0184326171875,0.1066436767578125
1702338788399745300,114.28174536132812,9.891754150390625,0.0148468017578125,0.1006622314453125
1702338788524714800,114.40671484375,9.89593505859375,0.0148468017578125,0.1048583984375
1702338788649715000,114.53171484375,9.87799072265625,0.00946044921875,0.1084442138671875
1702338788774715000,114.65671484375,9.892349243164062,0.0148468017578125,0.1066436767578125
1702338788899684400,114.78168432617187,9.895339965820312,0.02203369140625,0.106048583984375
1702338789024653800,114.90665380859375,9.918075561523438,0.00946044921875,0.1126251220703125
1702338789149592800,115.0315927734375,9.876800537109375,0.035186767578125,0.1042633056640625
1702338789274562300,115.15656225585937,9.8929443359375,0.0226287841796875,0.10784912109375
1702338789399531800,115.28153173828125,9.901321411132812,0.0088653564453125,0.1054534912109375
1702338789524470800,115.406470703125,9.88995361328125,0.0190277099609375,0.10784912109375
1702338789649440300,115.53144018554687,9.89892578125,0.014251708984375,0.10125732421875
1702338789774409700,115.65640966796875,9.900726318359375,0.0088653564453125,0.0982818603515625
1702338789899379200,115.78137915039062,9.897735595703125,0.01544189453125,0.100067138671875
1702338790024379100,115.90637915039062,9.896530151367188,0.00347900390625,0.1024627685546875
1702338790149348600,116.0313486328125,9.885177612304688,0.0130615234375,0.0994720458984375
1702338790274348500,116.1563486328125,9.892349243164062,0.0130615234375,0.1096343994140625
1702338790399348700,116.2813486328125,9.885772705078125,0.01904296875,0.0952911376953125
1702338790524318200,116.40631811523437,9.873809814453125,0.02801513671875,0.112030029296875
1702338790649287700,116.53128759765625,9.891754150390625,0.017242431640625,0.1168212890625
1702338790774287600,116.65628759765625,9.885177612304688,0.0124664306640625,0.1144256591796875
1702338790899257000,116.78125708007812,9.875595092773438,0.01605224609375,0.112030029296875
1702338791024257000,116.90625708007812,9.8875732421875,0.0136566162109375,0.10784912109375
1702338791149226500,117.0312265625,9.88397216796875,0.007080078125,0.0964813232421875
1702338791274196000,117.15619604492187,9.900131225585938,0.0118560791015625,0.09527587890625
1702338791399196200,117.28119604492187,9.889358520507812,0.023223876953125,0.09527587890625
1702338791524165600,117.40616552734375,9.87799072265625,0.0250244140625,0.1048583984375
1702338791649135000,117.53113500976562,9.89593505859375,0.01007080078125,0.10186767578125
1702338791774135000,117.65613500976562,9.898330688476562,0.01605224609375,0.10186767578125
1702338791899135000,117.78113500976562,9.875,0.0136566162109375,0.109039306640625
1702338792024163800,117.90616381835937,9.882186889648438,0.0166473388671875,0.1006622314453125
1702338792149133300,118.03113330078125,9.87799072265625,0.00946044921875,0.106658935546875
1702338792274102800,118.15610278320312,9.885177612304688,0.0118560791015625,0.10186767578125
1702338792399072300,118.281072265625,9.895339965820312,0.007080078125,0.100067138671875
1702338792524041700,118.40604174804687,9.8929443359375,0.011260986328125,0.0946807861328125
1702338792649042000,118.5310419921875,9.884567260742188,0.0274200439453125,0.0952911376953125
1702338792774011400,118.65601147460937,9.886962890625,0.0088653564453125,0.0994720458984375
1702338792898980900,118.78098095703125,9.899520874023438,0.012451171875,0.0964813232421875
1702338793023950300,118.90595043945312,9.891159057617188,0.0124664306640625,0.1024627685546875
1702338793148919800,119.030919921875,9.881591796875,0.01605224609375,0.09588623046875
1702338793273889300,119.15588916015625,9.88397216796875,0.011260986328125,0.10125732421875
1702338793398889200,119.28088916015625,9.898330688476562,0.01904296875,0.0982818603515625
1702338793523858700,119.40585864257812,9.89593505859375,0.020233154296875,0.097076416015625
1702338793648858600,119.53085864257812,9.909103393554688,0.0106658935546875,0.100067138671875
1702338793773828000,119.655828125,9.886367797851562,0.017242431640625,0.0982818603515625
1702338793898828300,119.78082836914062,9.89892578125,0.0130462646484375,0.0964813232421875
1702338794023828200,119.905828125,9.900726318359375,0.01544189453125,0.0976715087890625
1702338794148797700,120.03079760742187,9.873214721679688,0.0363922119140625,0.08929443359375
1702338794273767200,120.15576708984375,9.885177612304688,0.0166473388671875,0.1102447509765625
1702338794398736600,120.28073657226562,9.891754150390625,0.0148468017578125,0.1072540283203125
1702338794523706000,120.4057060546875,9.884567260742188,0.0178375244140625,0.109649658203125
1702338794648675600,120.53067553710937,9.892349243164062,0.0208282470703125,0.1006622314453125
1702338794773645000,120.65564501953125,9.89654541015625,0.014251708984375,0.0928955078125
1702338794898614500,120.78061450195312,9.903717041015625,0.0124664306640625,0.1042633056640625
1702338795023584000,120.905583984375,9.89892578125,0.0148468017578125,0.106048583984375
1702338795148584000,121.030583984375,9.88458251953125,0.0148468017578125,0.0934906005859375
1702338795273584000,121.15558422851562,9.893539428710938,0.020233154296875,0.1006622314453125
1702338795398584000,121.280583984375,9.892349243164062,0.0076751708984375,0.0982666015625
1702338795523584000,121.405583984375,9.894134521484375,0.0214385986328125,0.1066436767578125
1702338795648614700,121.53061474609375,9.88995361328125,0.0130615234375,0.103057861328125
1702338795773584100,121.65558422851562,9.891143798828125,0.0118560791015625,0.1012725830078125
1702338795898584000,121.780583984375,9.888763427734375,0.0184478759765625,0.1006622314453125
1702338796023584000,121.905583984375,9.882171630859375,0.0208282470703125,0.109039306640625
1702338796148584000,122.030583984375,9.885772705078125,0.020233154296875,0.1012725830078125
1702338796273584000,122.15558422851562,9.876190185546875,0.0088653564453125,0.1072540283203125
1702338796398584000,122.280583984375,9.895339965820312,0.02801513671875,0.10723876953125
1702338796523553500,122.40555346679687,9.895339965820312,0.0196380615234375,0.106658935546875
1702338796648523000,122.53052294921875,9.906112670898438,0.0208282470703125,0.09588623046875
1702338796773492500,122.65549243164062,9.897140502929688,0.014251708984375,0.0946807861328125
1702338796898492400,122.78049243164062,9.88995361328125,0.0148468017578125,0.0982666015625
1702338797023462000,122.9054619140625,9.903121948242188,0.01605224609375,0.0958709716796875
1702338797148462000,123.03046215820312,9.884567260742188,0.0196380615234375,0.1036529541015625
1702338797273431600,123.155431640625,9.8809814453125,0.008270263671875,0.1042633056640625
1702338797398401000,123.28040112304687,9.896530151367188,0.0148468017578125,0.1054534912109375
1702338797523401000,123.40540087890625,9.882186889648438,0.0130615234375,0.0982666015625
1702338797648401000,123.53040087890625,9.879196166992188,0.020233154296875,0.1102447509765625
1702338797773340000,123.65533984375,9.876190185546875,0.0226287841796875,0.103057861328125
1702338797898309400,123.78030932617187,9.885772705078125,0.0136566162109375,0.1036529541015625
1702338798023278800,123.90527880859375,9.900726318359375,0.014251708984375,0.1006622314453125
1702338798148248300,124.03024829101562,9.894744873046875,0.0208282470703125,0.11383056640625
1702338798273217800,124.1552177734375,9.879791259765625,0.0238189697265625,0.1114349365234375
1702338798398187300,124.28018725585937,9.8809814453125,0.0178375244140625,0.106658935546875
1702338798523156700,124.40515673828125,9.88397216796875,0.02203369140625,0.1102447509765625
1702338798648156700,124.53015673828125,9.889358520507812,0.0303955078125,0.112030029296875
1702338798773126400,124.65512646484375,9.892349243164062,0.0196380615234375,0.106658935546875
1702338798898095900,124.78009594726562,9.8929443359375,0.020233154296875,0.1102294921875
1702338799023065300,124.9050654296875,9.903121948242188,0.01605224609375,0.1036529541015625
1702338799148034800,125.03003491210937,9.902511596679688,0.01544189453125,0.0964813232421875
1702338799273004300,125.15500439453125,9.891159057617188,0.017242431640625,0.1084442138671875
1702338799398004200,125.28000415039062,9.89056396484375,0.0136566162109375,0.10186767578125
1702338799522973700,125.4049736328125,9.900726318359375,0.014251708984375,0.10784912109375
1702338799647943200,125.52994311523437,9.889358520507812,0.0166473388671875,0.098876953125
1702338799772943000,125.65494311523437,9.905517578125,0.005279541015625,0.10186767578125
1702338799897912600,125.77991259765625,9.891159057617188,0.0106658935546875,0.1024627685546875
1702338800022882000,125.90488208007812,9.892349243164062,0.023834228515625,0.0934906005859375
1702338800147851500,126.0298515625,9.8809814453125,0.02203369140625,0.1048583984375
1702338800272821000,126.15482104492187,9.885772705078125,0.0208282470703125,0.11083984375
1702338800397790500,126.27979052734375,9.889358520507812,0.0118560791015625,0.1036529541015625
1702338800522760200,126.40476025390625,9.886367797851562,0.00946044921875,0.1084442138671875
1702338800647729700,126.52972973632812,9.88995361328125,0.0166473388671875,0.1072540283203125
1702338800772699100,126.65469921875,9.885177612304688,0.0136566162109375,0.10125732421875
1702338800897668600,126.77966870117187,9.892349243164062,0.0184326171875,0.1048583984375
1702338801022607400,126.904607421875,9.883377075195312,0.0148468017578125,0.106048583984375
1702338801147607600,127.02960766601562,9.894149780273438,0.0088653564453125,0.0928955078125
1702338801272577000,127.15457690429687,9.88458251953125,0.0244293212890625,0.1102447509765625
1702338801397577000,127.27957690429687,9.876205444335938,0.0148468017578125,0.1042633056640625
1702338801522546400,127.40454638671875,9.895339965820312,0.0238189697265625,0.0952911376953125
1702338801647516000,127.52951586914062,9.8935546875,0.017852783203125,0.1012725830078125
1702338801772485400,127.6544853515625,9.885177612304688,0.014251708984375,0.0982818603515625
1702338801897454800,127.77945483398437,9.89593505859375,0.0166473388671875,0.10125732421875
1702338802022424300,127.90442431640625,9.895339965820312,0.0184326171875,0.100067138671875
1702338802147393800,128.02939379882812,9.886962890625,0.0136566162109375,0.1054534912109375
1702338802272394000,128.15439404296876,9.904312133789062,0.0130615234375,0.1024627685546875
1702338802397332700,128.27933276367187,9.8935546875,0.008270263671875,0.10784912109375
1702338802522333000,128.4043330078125,9.88995361328125,0.02203369140625,0.09527587890625
1702338802647302400,128.5293024902344,9.8929443359375,0.01904296875,0.104248046875
1702338802772271900,128.65427197265626,9.886367797851562,0.020233154296875,0.097076416015625
1702338802897211000,128.7792109375,9.89654541015625,0.0208282470703125,0.1162261962890625
1702338803022180400,128.9041804199219,9.89892578125,0.0166473388671875,0.1006622314453125
1702338803147149800,129.02914990234376,9.88397216796875,0.0148468017578125,0.106658935546875
1702338803272104000,129.15410400390624,9.882186889648438,0.0375823974609375,0.1048583984375
1702338803397073400,129.27907348632812,9.89593505859375,0.0226287841796875,0.1036529541015625
1702338803522043000,129.40404296875,9.892349243164062,0.017242431640625,0.11383056640625
1702338803647012400,129.52901245117187,9.90191650390625,0.0148468017578125,0.10723876953125
1702338803771981800,129.65398193359374,9.889358520507812,0.0130462646484375,0.103057861328125
1702338803896951300,129.77895141601562,9.905517578125,0.0190277099609375,0.103057861328125
1702338804021920800,129.90392065429688,9.884567260742188,0.0148468017578125,0.091094970703125
1702338804146890200,130.02889013671876,9.894149780273438,0.0136566162109375,0.10186767578125
1702338804271859700,130.15385961914063,9.88995361328125,0.01605224609375,0.0916900634765625
1702338804396798700,130.278798828125,9.896530151367188,0.0136566162109375,0.1036529541015625
1702338804521768200,130.40376831054687,9.880386352539062,0.011260986328125,0.118011474609375
1702338804646737700,130.52873754882813,9.885177612304688,0.017242431640625,0.1132354736328125
1702338804771737900,130.65373779296874,9.90789794921875,0.0214385986328125,0.106658935546875
1702338804896676600,130.77867651367188,9.888168334960938,0.032196044921875,0.1102447509765625
1702338805021676800,130.9036767578125,9.891159057617188,0.0118560791015625,0.1006622314453125
1702338805146646300,131.02864624023437,9.910293579101562,0.0178375244140625,0.1042633056640625
1702338805271615700,131.15361572265624,9.88397216796875,0.01007080078125,0.10784912109375
1702338805396585200,131.27858520507812,9.90252685546875,0.012451171875,0.10784912109375
1702338805521524200,131.40352416992187,9.899520874023438,0.0136566162109375,0.098876953125
1702338805646493700,131.52849365234374,9.877395629882812,0.03338623046875,0.0964813232421875
1702338805771493600,131.65349365234374,9.891159057617188,0.011260986328125,0.100067138671875
1702338805896463000,131.77846313476562,9.873809814453125,0.0178375244140625,0.0982818603515625
1702338806021432600,131.9034326171875,9.901321411132812,0.008270263671875,0.10784912109375
1702338806146432500,132.0284326171875,9.89892578125,0.011260986328125,0.0976715087890625
1702338806271371500,132.15337158203124,9.891754150390625,0.01544189453125,0.1096343994140625
1702338806396341000,132.27834106445312,9.889358520507812,0.0184478759765625,0.09228515625
1702338806521280000,132.40328002929687,9.897735595703125,0.0226287841796875,0.10186767578125
1702338806646249500,132.52824951171874,9.899520874023438,0.0238189697265625,0.10784912109375
1702338806771219000,132.65321899414062,9.904312133789062,0.01007080078125,0.0988616943359375
1702338806896188400,132.7781884765625,9.89593505859375,0.0238189697265625,0.1066436767578125
1702338807021127400,132.90312744140624,9.89654541015625,0.020843505859375,0.0934906005859375
1702338807146066400,133.02806640625,9.893539428710938,0.011260986328125,0.097076416015625
1702338807271066400,133.15306640625,9.907302856445312,0.0166473388671875,0.115020751953125
1702338807396035800,133.27803588867187,9.896530151367188,0.01605224609375,0.106048583984375
1702338807521005300,133.40300537109374,9.879791259765625,0.0166473388671875,0.109649658203125
1702338807645944300,133.5279443359375,9.904312133789062,0.01605224609375,0.1018524169921875
1702338807770913800,133.65291381835937,9.89654541015625,0.012451171875,0.1126251220703125
1702338807895883300,133.77788330078124,9.870819091796875,0.0148468017578125,0.1102447509765625
1702338808020822300,133.902822265625,9.90191650390625,0.0130462646484375,0.1132354736328125
1702338808145822200,134.027822265625,9.873199462890625,0.01544189453125,0.09228515625
1702338808270791700,134.15279174804687,9.88397216796875,0.0106658935546875,0.1006622314453125
1702338808395761200,134.27776123046874,9.895339965820312,0.017242431640625,0.0946807861328125
1702338808520730600,134.40273071289062,9.897140502929688,0.0136566162109375,0.106658935546875
1702338808645700000,134.5277001953125,9.900726318359375,0.012451171875,0.09228515625
1702338808770669600,134.65266967773437,9.89593505859375,0.017242431640625,0.0923004150390625
1702338808895639000,134.77763916015624,9.892349243164062,0.0190277099609375,0.0976715087890625
1702338809020608500,134.9026083984375,9.88458251953125,0.01904296875,0.112030029296875
1702338809145547500,135.02754760742187,9.885177612304688,0.01904296875,0.10784912109375
1702338809270486500,135.15248657226562,9.901321411132812,0.012451171875,0.1048583984375
1702338809395456000,135.2774560546875,9.888763427734375,0.020233154296875,0.0994720458984375
1702338809520425500,135.40242553710937,9.8929443359375,0.0058746337890625,0.11083984375
1702338809645395000,135.52739501953124,9.881576538085938,0.0250244140625,0.098876953125
1702338809770334000,135.652333984375,9.885772705078125,0.020233154296875,0.1114349365234375
1702338809895303400,135.77730346679687,9.891159057617188,0.0130462646484375,0.103057861328125
1702338810020273000,135.90227294921874,9.88995361328125,0.0148468017578125,0.11083984375
1702338810145212000,136.0272119140625,9.88397216796875,0.017242431640625,0.1084442138671875
1702338810270151000,136.15215087890624,9.901321411132812,0.01904296875,0.1048583984375
1702338810395120400,136.27712036132812,9.882171630859375,0.0238189697265625,0.1012725830078125
1702338810520089900,136.40208984375,9.885177612304688,0.0124664306640625,0.0994720458984375
1702338810645028900,136.52702880859374,9.887557983398438,0.02203369140625,0.10186767578125
1702338810769967600,136.65196752929688,9.874404907226562,0.014251708984375,0.11083984375
1702338810894906600,136.77690673828124,9.900131225585938,0.01904296875,0.11383056640625
1702338811019876000,136.9018759765625,9.891754150390625,0.0106658935546875,0.1048583984375
1702338811144815000,137.02681518554687,9.901321411132812,0.017242431640625,0.10186767578125
1702338811269754000,137.15175415039062,9.891159057617188,0.0076751708984375,0.1126251220703125
1702338811394693000,137.27669311523437,9.88458251953125,0.0196380615234375,0.1072540283203125
1702338811519632100,137.40163208007812,9.87799072265625,0.0166473388671875,0.109039306640625
1702338811644601600,137.5266015625,9.877395629882812,0.01007080078125,0.09588623046875
1702338811769571000,137.65157104492187,9.890548706054688,0.01904296875,0.1012725830078125
1702338811894540500,137.77654052734374,9.8935546875,0.017242431640625,0.0916900634765625
1702338812019510000,137.90151000976562,9.887557983398438,0.012451171875,0.1054534912109375
1702338812144449000,138.02644897460937,9.88995361328125,0.01007080078125,0.0982818603515625
1702338812269387800,138.1513876953125,9.90191650390625,0.0094757080078125,0.104248046875
1702338812394326800,138.27632690429687,9.8809814453125,0.0184478759765625,0.10784912109375
1702338812519265800,138.40126586914062,9.875595092773438,0.005279541015625,0.109039306640625
1702338812644235300,138.5262353515625,9.872604370117188,0.02203369140625,0.0946807861328125
1702338812769174300,138.65117431640624,9.88397216796875,0.020843505859375,0.103057861328125
1702338812894143700,138.77614379882812,9.880386352539062,0.0256195068359375,0.0994720458984375
1702338813019082800,138.90108276367187,9.888168334960938,0.0184326171875,0.1132354736328125
1702338813144052200,139.02605224609374,9.89892578125,0.0196380615234375,0.1054534912109375
1702338813269021700,139.15102172851562,9.882781982421875,0.0124664306640625,0.115020751953125
1702338813393991200,139.2759912109375,9.898941040039062,0.020233154296875,0.115631103515625
1702338813518960600,139.40096069335937,9.8929443359375,0.01904296875,0.1048583984375
1702338813643930000,139.52593017578124,9.900726318359375,0.01904296875,0.0946807861328125
1702338813768899600,139.65089965820312,9.890548706054688,0.0196380615234375,0.104248046875
1702338813893838600,139.77583862304687,9.883377075195312,0.0250244140625,0.0976715087890625
1702338814018777600,139.90077758789062,9.885177612304688,0.0196380615234375,0.112640380859375
1702338814143752400,140.02575244140624,9.88995361328125,0.0274200439453125,0.10186767578125
1702338814268691500,140.15069140625,9.89593505859375,0.0226287841796875,0.1132354736328125
1702338814393661000,140.27566088867187,9.868423461914062,0.017242431640625,0.0994720458984375
1702338814518630400,140.40063037109374,9.865432739257812,0.023834228515625,0.1072540283203125
1702338814643569400,140.5255693359375,9.898330688476562,0.02142333984375,0.1012725830078125
1702338814768539000,140.65053881835937,9.886962890625,0.0178375244140625,0.1215972900390625
1702338814893478000,140.77547778320312,9.882781982421875,0.01605224609375,0.1072540283203125
1702338815018417000,140.9004169921875,9.897140502929688,0.017242431640625,0.097076416015625
1702338815143416800,141.02541674804687,9.887557983398438,0.0166473388671875,0.1084442138671875
1702338815268416800,141.15041674804687,9.90252685546875,0.0244140625,0.104248046875
1702338815393355800,141.27535571289062,9.88458251953125,0.0214385986328125,0.100067138671875
1702338815518325200,141.4003251953125,9.88397216796875,0.01605224609375,0.106658935546875
1702338815643264300,141.52526416015624,9.88995361328125,0.011260986328125,0.1126251220703125
1702338815768264200,141.65026416015624,9.89056396484375,0.017852783203125,0.1126251220703125
1702338815893233700,141.77523364257812,9.888763427734375,0.020233154296875,0.1084442138671875
1702338816018203100,141.900203125,9.8929443359375,0.0226287841796875,0.1072540283203125
1702338816143172600,142.02517260742187,9.89654541015625,0.005279541015625,0.10723876953125
1702338816268142000,142.15014208984374,9.870208740234375,0.0303955078125,0.0982818603515625
1702338816393142300,142.27514233398438,9.89056396484375,0.02203369140625,0.106048583984375
1702338816518081300,142.40008129882813,9.891754150390625,0.0250244140625,0.08990478515625
1702338816643081200,142.52508129882813,9.874404907226562,0.0208282470703125,0.0893096923828125
1702338816768050700,142.65005078125,9.894744873046875,0.0106658935546875,0.1072540283203125
1702338816893020200,142.77502026367188,9.88995361328125,0.02801513671875,0.10125732421875
1702338817017959200,142.89995922851563,9.909103393554688,0.026214599609375,0.11083984375
1702338817142928600,143.0249287109375,9.88458251953125,0.0238189697265625,0.0928955078125
1702338817267928600,143.14992846679687,9.8809814453125,0.020233154296875,0.098876953125
1702338817392898000,143.27489794921874,9.895339965820312,0.01007080078125,0.1036529541015625
1702338817517867500,143.39986743164062,9.888168334960938,0.0178375244140625,0.0964813232421875
1702338817642837000,143.5248369140625,9.893539428710938,0.011260986328125,0.1084442138671875
1702338817767806500,143.64980639648437,9.875595092773438,0.0184326171875,0.1006622314453125
1702338817892776000,143.77477587890624,9.885772705078125,0.00347900390625,0.106048583984375
1702338818017745400,143.89974536132812,9.902511596679688,0.008270263671875,0.1036529541015625
1702338818142715000,144.02471484375,9.886367797851562,0.017242431640625,0.10125732421875
1702338818267684400,144.14968432617187,9.889358520507812,0.0178375244140625,0.098876953125
1702338818392653800,144.27465380859374,9.891754150390625,0.0286102294921875,0.1012725830078125
1702338818517623300,144.39962329101562,9.888763427734375,0.0238189697265625,0.1084442138671875
1702338818642623500,144.52462353515625,9.895339965820312,0.0166473388671875,0.1024627685546875
1702338818767593000,144.64959301757813,9.87200927734375,0.0196380615234375,0.1006622314453125
1702338818892562400,144.7745625,9.894149780273438,0.014251708984375,0.1006622314453125
1702338819017562400,144.89956225585937,9.900131225585938,0.01605224609375,0.09588623046875
1702338819142531800,145.02453173828124,9.89593505859375,0.01904296875,0.1036529541015625
1702338819267470800,145.14947094726563,9.898330688476562,0.020233154296875,0.1036529541015625
1702338819392440300,145.2744404296875,9.907302856445312,0.0118560791015625,0.1036529541015625
1702338819517409800,145.39940991210938,9.8875732421875,0.01904296875,0.094085693359375
1702338819642379300,145.52437915039062,9.8809814453125,0.01904296875,0.1042633056640625
1702338819767348700,145.6493486328125,9.8995361328125,0.0178375244140625,0.11383056640625
1702338819892318200,145.77431811523437,9.883377075195312,0.0208282470703125,0.1006622314453125
1702338820017287700,145.89928759765624,9.891754150390625,0.01544189453125,0.106048583984375
1702338820142257200,146.02425708007812,9.88995361328125,0.026214599609375,0.0946807861328125
1702338820267196200,146.14919604492187,9.89593505859375,0.0166473388671875,0.10186767578125
1702338820392165600,146.27416552734374,9.877395629882812,0.0196380615234375,0.1126251220703125
1702338820517104600,146.39910473632813,9.885177612304688,0.0268096923828125,0.0994720458984375
1702338820642074000,146.52407421875,9.886367797851562,0.020843505859375,0.0982818603515625
1702338820767043600,146.64904370117188,9.89892578125,0.0214385986328125,0.1066436767578125
1702338820892013000,146.77401293945312,9.886962890625,0.0250244140625,0.0904998779296875
1702338821016982500,146.898982421875,9.886962890625,0.0214385986328125,0.0946807861328125
1702338821141952000,147.02395190429687,9.899520874023438,0.0148468017578125,0.0946807861328125
1702338821266921500,147.14892138671874,9.898330688476562,0.020233154296875,0.1006622314453125
1702338821391891000,147.27389086914062,9.8935546875,0.017242431640625,0.1012725830078125
1702338821516860400,147.3988603515625,9.881576538085938,0.026824951171875,0.1006622314453125
1702338821641830000,147.52382983398437,9.888153076171875,0.005279541015625,0.100067138671875
1702338821766799400,147.64879931640624,9.891754150390625,0.0184478759765625,0.106048583984375
1702338821891799600,147.77379956054688,9.88995361328125,0.01904296875,0.1048583984375
1702338822016769000,147.89876904296875,9.891754150390625,0.020233154296875,0.1084442138671875
1702338822141738500,148.02373852539063,9.892349243164062,0.020233154296875,0.1048583984375
1702338822266738400,148.14873852539063,9.892349243164062,0.0184326171875,0.1156158447265625
1702338822391708000,148.2737080078125,9.894149780273438,0.01904296875,0.115020751953125
1702338822516707800,148.39870776367187,9.882186889648438,0.0196380615234375,0.100067138671875
1702338822641677300,148.52367724609374,9.887557983398438,0.01904296875,0.1018524169921875
1702338822766616300,148.6486162109375,9.894134521484375,0.0208282470703125,0.10784912109375
1702338822891616300,148.7736162109375,9.896530151367188,0.0166473388671875,0.10784912109375
1702338823016555300,148.89855517578124,9.869613647460938,0.0238189697265625,0.098876953125
1702338823141524700,149.02352465820312,9.897140502929688,0.01605224609375,0.0934906005859375
1702338823266524700,149.14852465820312,9.876800537109375,0.01605224609375,0.104248046875
1702338823391494100,149.273494140625,9.900726318359375,0.026214599609375,0.10186767578125
1702338823516463600,149.39846362304687,9.856460571289062,0.03399658203125,0.098876953125
1702338823641433000,149.52343310546874,9.895339965820312,0.017242431640625,0.1054534912109375
1702338823766372000,149.6483720703125,9.883377075195312,0.017242431640625,0.1006622314453125
1702338823891341600,149.77334155273437,9.90191650390625,0.0256195068359375,0.104248046875
1702338824016311000,149.89831103515624,9.897140502929688,0.0226287841796875,0.112030029296875
