time,seconds_elapsed,z,y,x
1702338612530102000,0.24510205078125,3.811000108718872,8.369999885559082,-0.03799999877810478
1702338612630265600,0.345265625,5.420000076293945,7.834000110626221,-0.2680000066757202
1702338612730050600,0.445050537109375,4.883999824523926,7.909999847412109,-0.2680000066757202
1702338612830047700,0.5450478515625,2.815000057220459,8.140000343322754,-0.11400000005960464
1702338612930053600,0.6450537109375,5.190000057220459,7.986999988555908,-0.6510000228881836
1702338613030045000,0.745044921875,5.0370001792907715,7.679999828338623,-0.5740000009536743
1702338613130041000,0.845041015625,4.423999786376953,7.604000091552734,-0.11400000005960464
1702338613230052600,0.945052490234375,5.880000114440918,7.909999847412109,-0.7269999980926514
1702338613338437600,1.053437744140625,5.7270002365112305,7.604000091552734,-0.7269999980926514
1702338613530048300,1.24504833984375,5.420000076293945,7.679999828338623,-0.3440000116825104
1702338613630668800,1.345668701171875,5.267000198364258,7.679999828338623,-0.5740000009536743
1702338613730952700,1.44595263671875,5.190000057220459,7.451000213623047,-0.3440000116825104
1702338613830523100,1.545523193359375,4.193999767303467,8.446999549865723,-1.4170000553131104
1702338613930155000,1.645155029296875,5.0370001792907715,8.52299976348877,-1.8769999742507935
1702338614030062800,1.745062744140625,6.185999870300293,9.74899959564209,-3.86899995803833
1702338614130984400,1.845984375,2.815000057220459,6.224999904632568,-1.034000039100647
1702338614230038000,1.9450380859375,3.9639999866485596,6.8379998207092285,-1.187000036239624
1702338614330410200,2.04541015625,9.020999908447266,4.616000175476074,-1.8769999742507935
1702338614430077200,2.1450771484375,8.791000366210938,2.316999912261963,-5.248000144958496
1702338614530198500,2.245198486328125,9.633999824523926,1.090999960899353,-7.928999900817871
1702338614630042400,2.34504248046875,7.0289998054504395,1.2450000047683716,-8.083000183105469
1702338614730040300,2.445040283203125,8.868000030517578,1.5509999990463257,-8.083000183105469
1702338614830038800,2.545038818359375,8.331999778747559,-1.2829999923706055,-6.550000190734863
1702338614930035200,2.64503515625,7.4120001792907715,-0.1340000033378601,-6.78000020980835
1702338615030037800,2.745037841796875,9.404000282287598,-0.6700000166893005,-5.706999778747559
1702338615130037800,2.845037841796875,10.093999862670898,-0.1340000033378601,-1.034000039100647
1702338615230072300,2.945072265625,9.711000442504883,-0.8999999761581421,-2.7190001010894775
1702338615330038800,3.045038818359375,9.404000282287598,-0.20999999344348907,-2.1059999465942383
1702338615430038300,3.145038330078125,9.097999572753906,-0.1340000033378601,-1.2640000581741333
1702338615530038500,3.24503857421875,9.86400032043457,-0.4399999976158142,-0.49799999594688416
1702338615630038800,3.345038818359375,9.940999984741211,-0.4399999976158142,-0.49799999594688416
1702338615730817300,3.4458173828125,9.86400032043457,-0.3630000054836273,-0.49799999594688416
1702338615830039600,3.54503955078125,9.86400032043457,-0.4399999976158142,-0.49799999594688416
1702338615930036200,3.6450361328125,9.940999984741211,-0.4399999976158142,-0.49799999594688416
1702338616030038000,3.7450380859375,9.86400032043457,-0.4399999976158142,-0.49799999594688416
1702338616130038500,3.84503857421875,9.86400032043457,-0.3630000054836273,-0.49799999594688416
1702338616230039800,3.945039794921875,9.86400032043457,-0.4399999976158142,-0.49799999594688416
1702338616330038800,4.045038818359375,9.86400032043457,-0.3630000054836273,-0.49799999594688416
1702338616430036700,4.14503662109375,9.86400032043457,-0.4399999976158142,-0.49799999594688416
1702338616530037500,4.24503759765625,10.093999862670898,-0.4399999976158142,-0.49799999594688416
1702338616630039300,4.345039306640625,9.86400032043457,-0.4399999976158142,-0.49799999594688416
1702338616730039000,4.4450390625,9.86400032043457,-0.4399999976158142,-0.5740000009536743
1702338616830038300,4.545038330078125,9.86400032043457,-0.3630000054836273,-0.49799999594688416
1702338616930036500,4.645036376953125,9.86400032043457,-0.3630000054836273,-0.5740000009536743
1702338617030039300,4.745039306640625,9.86400032043457,-0.4399999976158142,-0.49799999594688416
1702338617130038300,4.845038330078125,9.86400032043457,-0.4399999976158142,-0.49799999594688416
1702338617230038800,4.945038818359375,9.86400032043457,-0.4399999976158142,-0.49799999594688416
1702338617330039000,5.0450390625,9.86400032043457,-0.4399999976158142,-0.49799999594688416
1702338617430038800,5.145038818359375,9.86400032043457,-0.4399999976158142,-0.49799999594688416
1702338617570054100,5.28505419921875,9.940999984741211,-0.4399999976158142,-0.49799999594688416
1702338617670046700,5.385046630859375,9.86400032043457,-0.4399999976158142,-0.49799999594688416
1702338617770050300,5.48505029296875,9.86400032043457,-0.3630000054836273,-0.49799999594688416
1702338617870048000,5.585048095703125,9.86400032043457,-0.4399999976158142,-0.49799999594688416
1702338617970049300,5.68504931640625,9.86400032043457,-0.4399999976158142,-0.49799999594688416
1702338618070048500,5.785048583984375,9.86400032043457,-0.4399999976158142,-0.49799999594688416
1702338618170050600,5.885050537109375,9.86400032043457,-0.4399999976158142,-0.49799999594688416
1702338618270048500,5.985048583984375,9.86400032043457,-0.3630000054836273,-0.49799999594688416
1702338618370047200,6.085047119140625,9.86400032043457,-0.3630000054836273,-0.5740000009536743
1702338618470056000,6.185055908203125,9.86400032043457,-0.4399999976158142,-0.49799999594688416
1702338618570045000,6.285044921875,9.86400032043457,-0.3630000054836273,-0.49799999594688416
1702338618670050300,6.38505029296875,9.86400032043457,-0.4399999976158142,-0.49799999594688416
1702338618770048800,6.485048828125,9.86400032043457,-0.4399999976158142,-0.5740000009536743
1702338618870044400,6.58504443359375,9.940999984741211,-0.3630000054836273,-0.49799999594688416
1702338618970049000,6.685049072265625,9.86400032043457,-0.3630000054836273,-0.5740000009536743
1702338619070049800,6.7850498046875,9.940999984741211,-0.4399999976158142,-0.49799999594688416
1702338619170052400,6.88505224609375,9.940999984741211,-0.3630000054836273,-0.49799999594688416
1702338619270050600,6.985050537109375,9.940999984741211,-0.3630000054836273,-0.49799999594688416
1702338619370047200,7.085047119140625,9.86400032043457,-0.4399999976158142,-0.5740000009536743
1702338619470048500,7.185048583984375,9.86400032043457,-0.4399999976158142,-0.5740000009536743
1702338619570049000,7.285049072265625,9.86400032043457,-0.4399999976158142,-0.5740000009536743
1702338619670049500,7.385049560546875,9.86400032043457,-0.3630000054836273,-0.5740000009536743
1702338619770047700,7.4850478515625,9.86400032043457,-0.4399999976158142,-0.5740000009536743
1702338619870049500,7.585049560546875,9.86400032043457,-0.4399999976158142,-0.49799999594688416
1702338619970050000,7.685050048828125,9.86400032043457,-0.3630000054836273,-0.5740000009536743
1702338620070049300,7.78504931640625,9.86400032043457,-0.4399999976158142,-0.5740000009536743
1702338620170048500,7.885048583984375,9.86400032043457,-0.4399999976158142,-0.5740000009536743
1702338620270046700,7.985046630859375,9.86400032043457,-0.4399999976158142,-0.5740000009536743
1702338620370047700,8.0850478515625,9.86400032043457,-0.4399999976158142,-0.49799999594688416
1702338620470049000,8.185049072265626,9.940999984741211,-0.3630000054836273,-0.49799999594688416
1702338620570049300,8.28504931640625,9.86400032043457,-0.4399999976158142,-0.5740000009536743
1702338620670049000,8.385049072265625,9.86400032043457,-0.4399999976158142,-0.49799999594688416
1702338620775088400,8.49008837890625,9.86400032043457,-0.4399999976158142,-0.49799999594688416
1702338620970049500,8.685049560546876,9.86400032043457,-0.4399999976158142,-0.49799999594688416
1702338621070050300,8.78505029296875,9.86400032043457,-0.4399999976158142,-0.49799999594688416
1702338621170056000,8.885055908203125,9.86400032043457,-0.3630000054836273,-0.49799999594688416
1702338621270050300,8.98505029296875,9.86400032043457,-0.4399999976158142,-0.5740000009536743
1702338621370049800,9.0850498046875,9.86400032043457,-0.4399999976158142,-0.49799999594688416
1702338621470051000,9.185051025390624,9.86400032043457,-0.4399999976158142,-0.49799999594688416
1702338621570049300,9.28504931640625,9.86400032043457,-0.4399999976158142,-0.49799999594688416
1702338621670047500,9.385047607421875,9.86400032043457,-0.4399999976158142,-0.5740000009536743
1702338621770049000,9.485049072265625,9.86400032043457,-0.4399999976158142,-0.5740000009536743
1702338621870048500,9.585048583984374,9.86400032043457,-0.4399999976158142,-0.49799999594688416
1702338621970050600,9.685050537109374,9.86400032043457,-0.3630000054836273,-0.49799999594688416
1702338622070055200,9.78505517578125,9.86400032043457,-0.4399999976158142,-0.49799999594688416
1702338622170057200,9.88505712890625,9.86400032043457,-0.4399999976158142,-0.49799999594688416
1702338622270050000,9.985050048828125,9.86400032043457,-0.4399999976158142,-0.49799999594688416
1702338622370049500,10.085049560546874,9.86400032043457,-0.3630000054836273,-0.49799999594688416
1702338622470096000,10.185095947265625,9.86400032043457,-0.4399999976158142,-0.49799999594688416
1702338622571010300,10.28601025390625,9.86400032043457,-0.4399999976158142,-0.49799999594688416
1702338622670049300,10.38504931640625,9.86400032043457,-0.4399999976158142,-0.5740000009536743
1702338622770050800,10.48505078125,9.940999984741211,-0.3630000054836273,-0.49799999594688416
1702338622870047500,10.585047607421876,9.86400032043457,-0.4399999976158142,-0.49799999594688416
1702338622970049300,10.68504931640625,9.86400032043457,-0.4399999976158142,-0.49799999594688416
1702338623070047500,10.785047607421875,9.86400032043457,-0.4399999976158142,-0.5740000009536743
1702338623170278100,10.885278076171875,9.86400032043457,-0.4399999976158142,-0.5740000009536743
1702338623270047500,10.985047607421874,9.86400032043457,-0.4399999976158142,-0.5740000009536743
1702338623370048500,11.085048583984374,9.86400032043457,-0.4399999976158142,-0.49799999594688416
1702338623470046500,11.18504638671875,9.86400032043457,-0.3630000054836273,-0.49799999594688416
1702338623570046700,11.285046630859375,9.86400032043457,-0.4399999976158142,-0.49799999594688416
1702338623670048500,11.385048583984375,9.86400032043457,-0.4399999976158142,-0.5740000009536743
1702338623770048000,11.485048095703124,9.86400032043457,-0.4399999976158142,-0.49799999594688416
1702338623870046700,11.585046630859376,9.86400032043457,-0.3630000054836273,-0.49799999594688416
1702338623970055700,11.6850556640625,9.86400032043457,-0.4399999976158142,-0.5740000009536743
1702338624071942400,11.7869423828125,9.86400032043457,-0.4399999976158142,-0.49799999594688416
1702338624171527000,11.88652685546875,9.86400032043457,-0.3630000054836273,-0.49799999594688416
1702338624271529500,11.986529541015624,9.86400032043457,-0.4399999976158142,-0.49799999594688416
1702338624372089300,12.08708935546875,9.86400032043457,-0.4399999976158142,-0.49799999594688416
1702338624470061800,12.185061767578125,9.86400032043457,-0.4399999976158142,-0.49799999594688416
1702338624570062000,12.28506201171875,9.86400032043457,-0.4399999976158142,-0.5740000009536743
1702338624671637800,12.3866376953125,9.86400032043457,-0.4399999976158142,-0.49799999594688416
1702338624771533300,12.486533203125,9.86400032043457,-0.4399999976158142,-0.5740000009536743
1702338624871639800,12.586639892578125,9.86400032043457,-0.4399999976158142,-0.5740000009536743
1702338624970056000,12.685055908203125,9.86400032043457,-0.4399999976158142,-0.49799999594688416
1702338625070049000,12.785049072265625,9.86400032043457,-0.3630000054836273,-0.49799999594688416
1702338625170089500,12.88508935546875,9.86400032043457,-0.4399999976158142,-0.49799999594688416
1702338625271527700,12.986527587890626,9.86400032043457,-0.4399999976158142,-0.49799999594688416
1702338625370071000,13.085071044921875,9.940999984741211,-0.4399999976158142,-0.49799999594688416
1702338625471483600,13.186483642578125,9.86400032043457,-0.3630000054836273,-0.49799999594688416
1702338625571526000,13.28652587890625,9.940999984741211,-0.4399999976158142,-0.49799999594688416
1702338625671141000,13.38614111328125,9.86400032043457,-0.4399999976158142,-0.49799999594688416
1702338625770064400,13.485064453125,9.86400032043457,-0.4399999976158142,-0.5740000009536743
1702338625870285000,13.58528515625,9.940999984741211,-0.4399999976158142,-0.5740000009536743
1702338625970065700,13.685065673828126,9.940999984741211,-0.4399999976158142,-0.5740000009536743
1702338626070058200,13.785058349609375,9.86400032043457,-0.4399999976158142,-0.49799999594688416
1702338626171525400,13.886525390625,9.86400032043457,-0.4399999976158142,-0.5740000009536743
1702338626271638300,13.98663818359375,9.86400032043457,-0.4399999976158142,-0.5740000009536743
1702338626370066700,14.085066650390624,9.86400032043457,-0.4399999976158142,-0.49799999594688416
1702338626470051300,14.18505126953125,9.86400032043457,-0.4399999976158142,-0.49799999594688416
1702338626571530200,14.2865302734375,9.86400032043457,-0.3630000054836273,-0.49799999594688416
1702338626671527200,14.386527099609374,9.86400032043457,-0.4399999976158142,-0.49799999594688416
1702338626771476000,14.48647607421875,9.86400032043457,-0.4399999976158142,-0.49799999594688416
1702338626871526000,14.58652587890625,9.86400032043457,-0.4399999976158142,-0.49799999594688416
1702338626971572200,14.686572265625,9.86400032043457,-0.4399999976158142,-0.49799999594688416
1702338627071542000,14.7865419921875,9.86400032043457,-0.4399999976158142,-0.49799999594688416
1702338627171526100,14.886526123046876,9.86400032043457,-0.4399999976158142,-0.49799999594688416
1702338627271524900,14.98652490234375,9.940999984741211,-0.4399999976158142,-0.49799999594688416
1702338627370665000,15.0856650390625,9.86400032043457,-0.4399999976158142,-0.49799999594688416
1702338627470058200,15.185058349609376,9.86400032043457,-0.4399999976158142,-0.49799999594688416
1702338627570989600,15.285989501953125,9.86400032043457,-0.3630000054836273,-0.49799999594688416
1702338627670059000,15.38505908203125,9.86400032043457,-0.4399999976158142,-0.5740000009536743
1702338627771426300,15.48642626953125,9.86400032043457,-0.3630000054836273,-0.49799999594688416
1702338627870711300,15.585711181640624,9.86400032043457,-0.4399999976158142,-0.49799999594688416
1702338627971406800,15.68640673828125,9.86400032043457,-0.4399999976158142,-0.49799999594688416
1702338628070841300,15.78584130859375,9.940999984741211,-0.4399999976158142,-0.49799999594688416
1702338628171522300,15.886522216796875,9.940999984741211,-0.4399999976158142,-0.49799999594688416
1702338628270779000,15.98577880859375,9.86400032043457,-0.4399999976158142,-0.5740000009536743
1702338628370074600,16.08507470703125,9.86400032043457,-0.3630000054836273,-0.5740000009536743
1702338628470069000,16.185069091796876,9.86400032043457,-0.4399999976158142,-0.49799999594688416
1702338628570712600,16.285712646484374,9.86400032043457,-0.4399999976158142,-0.5740000009536743
1702338628670066200,16.385066162109375,9.86400032043457,-0.4399999976158142,-0.49799999594688416
1702338628771535600,16.48653564453125,9.86400032043457,-0.4399999976158142,-0.5740000009536743
1702338628871526000,16.58652587890625,9.86400032043457,-0.4399999976158142,-0.49799999594688416
1702338628971523300,16.6865234375,9.940999984741211,-0.4399999976158142,-0.5740000009536743
1702338629071525000,16.786525146484376,9.86400032043457,-0.4399999976158142,-0.5740000009536743
1702338629170065000,16.88506494140625,9.86400032043457,-0.4399999976158142,-0.49799999594688416
1702338629270439700,16.985439697265626,9.86400032043457,-0.4399999976158142,-0.49799999594688416
1702338629370073600,17.085073486328124,9.86400032043457,-0.4399999976158142,-0.49799999594688416
1702338629470073600,17.185073486328125,9.940999984741211,-0.4399999976158142,-0.49799999594688416
1702338629571539200,17.286539306640623,9.86400032043457,-0.3630000054836273,-0.49799999594688416
1702338629671524000,17.386524169921874,9.86400032043457,-0.4399999976158142,-0.5740000009536743
1702338629771522300,17.486522216796875,9.86400032043457,-0.4399999976158142,-0.49799999594688416
1702338629871468300,17.58646826171875,9.86400032043457,-0.4399999976158142,-0.49799999594688416
1702338629971468300,17.68646826171875,9.86400032043457,-0.3630000054836273,-0.49799999594688416
1702338630071527200,17.786527099609376,9.940999984741211,-0.3630000054836273,-0.49799999594688416
1702338630171523000,17.886523193359373,9.940999984741211,-0.4399999976158142,-0.5740000009536743
1702338630271635500,17.986635498046876,9.86400032043457,-0.3630000054836273,-0.49799999594688416
1702338630370064400,18.085064453125,9.86400032043457,-0.4399999976158142,-0.49799999594688416
1702338630470067000,18.18506689453125,9.86400032043457,-0.4399999976158142,-0.5740000009536743
1702338630571527200,18.286527099609376,9.86400032043457,-0.4399999976158142,-0.49799999594688416
1702338630671466500,18.386466552734376,9.940999984741211,-0.3630000054836273,-0.49799999594688416
1702338630770054100,18.48505419921875,9.86400032043457,-0.4399999976158142,-0.49799999594688416
1702338630870056400,18.585056396484376,9.940999984741211,-0.4399999976158142,-0.49799999594688416
1702338630970063000,18.68506298828125,9.86400032043457,-0.3630000054836273,-0.49799999594688416
1702338631070065700,18.785065673828125,9.86400032043457,-0.4399999976158142,-0.49799999594688416
1702338631171527700,18.886527587890626,9.86400032043457,-0.4399999976158142,-0.49799999594688416
1702338631271524900,18.98652490234375,9.86400032043457,-0.4399999976158142,-0.49799999594688416
1702338631370080800,19.085080810546874,9.86400032043457,-0.4399999976158142,-0.49799999594688416
1702338631470051800,19.1850517578125,9.86400032043457,-0.3630000054836273,-0.49799999594688416
1702338631571526100,19.286526123046876,9.86400032043457,-0.4399999976158142,-0.49799999594688416
1702338631671642400,19.386642333984376,9.86400032043457,-0.4399999976158142,-0.49799999594688416
1702338631771536600,19.48653662109375,9.940999984741211,-0.4399999976158142,-0.49799999594688416
1702338631871637200,19.58663720703125,9.86400032043457,-0.4399999976158142,-0.5740000009536743
1702338631971581700,19.686581787109375,9.86400032043457,-0.4399999976158142,-0.49799999594688416
1702338632071638300,19.78663818359375,9.86400032043457,-0.4399999976158142,-0.49799999594688416
1702338632171646200,19.886646240234374,9.940999984741211,-0.4399999976158142,-0.49799999594688416
1702338632271645000,19.98664501953125,9.86400032043457,-0.4399999976158142,-0.5740000009536743
1702338632370073600,20.085073486328124,9.86400032043457,-0.4399999976158142,-0.49799999594688416
1702338632471526700,20.186526611328127,9.86400032043457,-0.3630000054836273,-0.49799999594688416
1702338632571524900,20.28652490234375,9.86400032043457,-0.4399999976158142,-0.49799999594688416
1702338632670062300,20.385062255859374,9.86400032043457,-0.4399999976158142,-0.5740000009536743
1702338632771497500,20.48649755859375,9.86400032043457,-0.3630000054836273,-0.5740000009536743
1702338632871524600,20.586524658203125,9.86400032043457,-0.4399999976158142,-0.49799999594688416
1702338632970059500,20.6850595703125,9.86400032043457,-0.4399999976158142,-0.49799999594688416
1702338633070057200,20.78505712890625,9.86400032043457,-0.4399999976158142,-0.49799999594688416
1702338633171526100,20.886526123046874,9.86400032043457,-0.4399999976158142,-0.5740000009536743
1702338633271527000,20.98652685546875,9.940999984741211,-0.4399999976158142,-0.49799999594688416
1702338633370067200,21.085067138671874,9.86400032043457,-0.4399999976158142,-0.5740000009536743
1702338633470064600,21.185064697265624,9.86400032043457,-0.4399999976158142,-0.49799999594688416
1702338633570058000,21.28505810546875,9.940999984741211,-0.4399999976158142,-0.49799999594688416
1702338633670059300,21.385059326171874,9.86400032043457,-0.4399999976158142,-0.49799999594688416
1702338633771523800,21.48652392578125,9.86400032043457,-0.4399999976158142,-0.49799999594688416
1702338633870057700,21.5850576171875,9.940999984741211,-0.4399999976158142,-0.49799999594688416
1702338633971530200,21.6865302734375,9.86400032043457,-0.4399999976158142,-0.49799999594688416
1702338634071671800,21.786671875,9.86400032043457,-0.3630000054836273,-0.5740000009536743
1702338634170056200,21.88505615234375,9.86400032043457,-0.4399999976158142,-0.5740000009536743
1702338634270062600,21.9850625,9.940999984741211,-0.4399999976158142,-0.5740000009536743
1702338634370055200,22.08505517578125,9.86400032043457,-0.4399999976158142,-0.49799999594688416
1702338634470058200,22.185058349609374,9.86400032043457,-0.4399999976158142,-0.5740000009536743
1702338634570303500,22.285303466796876,9.940999984741211,-0.3630000054836273,-0.49799999594688416
1702338634671836400,22.38683642578125,9.86400032043457,-0.4399999976158142,-0.49799999594688416
1702338634771637200,22.48663720703125,9.86400032043457,-0.4399999976158142,-0.49799999594688416
1702338634871535900,22.586535888671875,9.86400032043457,-0.4399999976158142,-0.49799999594688416
1702338634971581200,22.686581298828123,9.86400032043457,-0.4399999976158142,-0.49799999594688416
1702338635071527400,22.78652734375,9.86400032043457,-0.4399999976158142,-0.5740000009536743
1702338635171642600,22.886642578125,9.86400032043457,-0.4399999976158142,-0.5740000009536743
1702338635271532000,22.986531982421877,9.86400032043457,-0.4399999976158142,-0.49799999594688416
1702338635370059000,23.08505908203125,9.86400032043457,-0.4399999976158142,-0.49799999594688416
1702338635471484000,23.18648388671875,9.86400032043457,-0.4399999976158142,-0.49799999594688416
1702338635571541000,23.286541015625,9.86400032043457,-0.4399999976158142,-0.5740000009536743
1702338635671649000,23.38664892578125,9.86400032043457,-0.4399999976158142,-0.5740000009536743
1702338635771467300,23.48646728515625,9.86400032043457,-0.4399999976158142,-0.49799999594688416
1702338635870056200,23.58505615234375,9.86400032043457,-0.4399999976158142,-0.49799999594688416
1702338635970063600,23.685063720703123,9.86400032043457,-0.4399999976158142,-0.49799999594688416
1702338636071637800,23.7866376953125,9.86400032043457,-0.3630000054836273,-0.49799999594688416
1702338636171532300,23.8865322265625,9.86400032043457,-0.4399999976158142,-0.5740000009536743
1702338636271527000,23.98652685546875,9.86400032043457,-0.4399999976158142,-0.49799999594688416
1702338636370068500,24.085068359375,9.86400032043457,-0.3630000054836273,-0.49799999594688416
1702338636471529200,24.186529296875,9.86400032043457,-0.4399999976158142,-0.5740000009536743
1702338636570494000,24.285493896484375,9.86400032043457,-0.4399999976158142,-0.49799999594688416
1702338636671530500,24.386530517578127,9.86400032043457,-0.4399999976158142,-0.5740000009536743
1702338636771537700,24.48653759765625,9.86400032043457,-0.4399999976158142,-0.5740000009536743
1702338636871531300,24.58653125,9.940999984741211,-0.3630000054836273,-0.49799999594688416
1702338636971574000,24.686573974609374,9.86400032043457,-0.4399999976158142,-0.49799999594688416
1702338637071533300,24.786533203125,9.86400032043457,-0.4399999976158142,-0.5740000009536743
1702338637171530800,24.88653076171875,9.86400032043457,-0.3630000054836273,-0.49799999594688416
1702338637271528000,24.98652783203125,9.86400032043457,-0.3630000054836273,-0.49799999594688416
1702338637370078700,25.08507861328125,9.86400032043457,-0.3630000054836273,-0.49799999594688416
1702338637470051600,25.185051513671876,9.86400032043457,-0.4399999976158142,-0.49799999594688416
1702338637571524000,25.286524169921876,9.86400032043457,-0.4399999976158142,-0.49799999594688416
1702338637670052000,25.385052001953124,9.86400032043457,-0.3630000054836273,-0.5740000009536743
1702338637770057000,25.485056884765626,9.86400032043457,-0.3630000054836273,-0.5740000009536743
1702338637870087700,25.585087646484375,9.86400032043457,-0.4399999976158142,-0.49799999594688416
1702338637970086000,25.6850859375,9.86400032043457,-0.3630000054836273,-0.49799999594688416
1702338638070065400,25.7850654296875,9.940999984741211,-0.4399999976158142,-0.5740000009536743
1702338638170062800,25.885062744140626,9.940999984741211,-0.4399999976158142,-0.49799999594688416
1702338638270057700,25.9850576171875,9.86400032043457,-0.4399999976158142,-0.5740000009536743
1702338638370073900,26.085073974609376,9.86400032043457,-0.4399999976158142,-0.49799999594688416
1702338638470055700,26.1850556640625,9.940999984741211,-0.3630000054836273,-0.5740000009536743
1702338638570078500,26.285078369140624,9.940999984741211,-0.4399999976158142,-0.49799999594688416
1702338638670057200,26.38505712890625,9.86400032043457,-0.3630000054836273,-0.5740000009536743
1702338638770065000,26.48506494140625,9.86400032043457,-0.4399999976158142,-0.5740000009536743
1702338638870511000,26.585510986328124,9.86400032043457,-0.4399999976158142,-0.5740000009536743
1702338638971652900,26.68665283203125,9.786999702453613,-0.4399999976158142,-0.5740000009536743
1702338639071639300,26.786639404296874,9.86400032043457,-0.4399999976158142,-0.5740000009536743
1702338639170056700,26.885056640625,9.86400032043457,-0.4399999976158142,-0.49799999594688416
1702338639271530000,26.986530029296876,9.86400032043457,-0.4399999976158142,-0.49799999594688416
1702338639370065200,27.085065185546874,9.86400032043457,-0.4399999976158142,-0.49799999594688416
1702338639471637500,27.186637451171876,9.86400032043457,-0.3630000054836273,-0.49799999594688416
1702338639571526000,27.28652587890625,9.86400032043457,-0.4399999976158142,-0.49799999594688416
1702338639671536600,27.38653662109375,9.86400032043457,-0.4399999976158142,-0.5740000009536743
1702338639771523300,27.4865234375,9.86400032043457,-0.4399999976158142,-0.5740000009536743
1702338639871638000,27.586637939453126,9.86400032043457,-0.4399999976158142,-0.5740000009536743
1702338639970060800,27.685060791015626,9.86400032043457,-0.4399999976158142,-0.49799999594688416
1702338640070063000,27.78506298828125,9.86400032043457,-0.4399999976158142,-0.5740000009536743
1702338640171635700,27.8866357421875,9.940999984741211,-0.4399999976158142,-0.49799999594688416
1702338640271638000,27.986637939453125,9.86400032043457,-0.3630000054836273,-0.49799999594688416
1702338640370070800,28.08507080078125,9.86400032043457,-0.4399999976158142,-0.49799999594688416
1702338640470050800,28.18505078125,9.86400032043457,-0.4399999976158142,-0.49799999594688416
1702338640571430400,28.286430419921874,9.86400032043457,-0.3630000054836273,-0.5740000009536743
1702338640671636000,28.386635986328123,9.86400032043457,-0.3630000054836273,-0.49799999594688416
1702338640771650800,28.48665087890625,9.86400032043457,-0.4399999976158142,-0.5740000009536743
1702338640870054400,28.585054443359375,9.86400032043457,-0.4399999976158142,-0.49799999594688416
1702338640970057500,28.685057373046874,9.86400032043457,-0.4399999976158142,-0.49799999594688416
1702338641070058200,28.785058349609375,9.86400032043457,-0.3630000054836273,-0.49799999594688416
1702338641171526000,28.88652587890625,9.86400032043457,-0.4399999976158142,-0.49799999594688416
1702338641271636500,28.986636474609377,9.86400032043457,-0.4399999976158142,-0.49799999594688416
1702338641372079000,29.0870791015625,9.86400032043457,-0.4399999976158142,-0.49799999594688416
1702338641470198300,29.1851982421875,9.86400032043457,-0.3630000054836273,-0.5740000009536743
1702338641571524900,29.28652490234375,9.86400032043457,-0.3630000054836273,-0.49799999594688416
1702338641671638300,29.38663818359375,9.86400032043457,-0.4399999976158142,-0.49799999594688416
1702338641771534600,29.48653466796875,9.86400032043457,-0.4399999976158142,-0.49799999594688416
1702338641871644200,29.58664404296875,9.86400032043457,-0.4399999976158142,-0.5740000009536743
1702338641971582500,29.68658251953125,9.86400032043457,-0.4399999976158142,-0.49799999594688416
1702338642071525600,29.786525634765624,9.86400032043457,-0.4399999976158142,-0.49799999594688416
1702338642170059800,29.885059814453125,9.86400032043457,-0.4399999976158142,-0.49799999594688416
1702338642271532500,29.986532470703125,9.86400032043457,-0.4399999976158142,-0.5740000009536743
1702338642370059500,30.0850595703125,9.86400032043457,-0.4399999976158142,-0.5740000009536743
1702338642470052000,30.185052001953125,9.86400032043457,-0.4399999976158142,-0.49799999594688416
1702338642571474000,30.286473876953124,9.86400032043457,-0.4399999976158142,-0.5740000009536743
1702338642670510000,30.385510009765625,9.86400032043457,-0.4399999976158142,-0.5740000009536743
1702338642771536400,30.486536376953126,9.86400032043457,-0.4399999976158142,-0.49799999594688416
1702338642871527000,30.58652685546875,9.86400032043457,-0.4399999976158142,-0.49799999594688416
1702338642971575800,30.686575927734374,9.86400032043457,-0.4399999976158142,-0.49799999594688416
1702338643071521800,30.786521728515623,9.86400032043457,-0.3630000054836273,-0.49799999594688416
1702338643171644700,30.886644775390625,9.86400032043457,-0.3630000054836273,-0.49799999594688416
1702338643271611600,30.986611572265623,9.86400032043457,-0.4399999976158142,-0.49799999594688416
1702338643370062300,31.085062255859373,9.86400032043457,-0.4399999976158142,-0.49799999594688416
1702338643470058200,31.185058349609374,9.86400032043457,-0.4399999976158142,-0.49799999594688416
1702338643570062800,31.285062744140625,9.86400032043457,-0.4399999976158142,-0.49799999594688416
1702338643670058800,31.385058837890625,9.86400032043457,-0.4399999976158142,-0.49799999594688416
1702338643771525400,31.486525390625,9.86400032043457,-0.4399999976158142,-0.49799999594688416
1702338643871650000,31.586650146484374,9.86400032043457,-0.4399999976158142,-0.5740000009536743
1702338643971574000,31.686573974609374,9.940999984741211,-0.4399999976158142,-0.49799999594688416
1702338644070061300,31.785061279296876,9.86400032043457,-0.3630000054836273,-0.5740000009536743
1702338644170109000,31.88510888671875,9.86400032043457,-0.3630000054836273,-0.49799999594688416
1702338644270103300,31.985103271484373,9.86400032043457,-0.4399999976158142,-0.49799999594688416
1702338644370063000,32.08506298828125,9.86400032043457,-0.3630000054836273,-0.49799999594688416
1702338644471525600,32.18652563476562,9.86400032043457,-0.3630000054836273,-0.5740000009536743
1702338644571636500,32.286636474609374,9.86400032043457,-0.4399999976158142,-0.49799999594688416
1702338644671522300,32.38652221679688,9.86400032043457,-0.4399999976158142,-0.5740000009536743
1702338644771523800,32.48652392578125,9.86400032043457,-0.4399999976158142,-0.49799999594688416
1702338644871538700,32.58653857421875,9.940999984741211,-0.4399999976158142,-0.49799999594688416
1702338644971570000,32.68656982421875,9.940999984741211,-0.4399999976158142,-0.5740000009536743
1702338645071522300,32.786522216796875,9.940999984741211,-0.4399999976158142,-0.5740000009536743
1702338645171524400,32.8865244140625,9.86400032043457,-0.4399999976158142,-0.5740000009536743
1702338645271636000,32.986635986328125,9.86400032043457,-0.4399999976158142,-0.5740000009536743
1702338645370059300,33.08505932617187,9.86400032043457,-0.4399999976158142,-0.49799999594688416
1702338645471582000,33.18658203125,9.86400032043457,-0.4399999976158142,-0.5740000009536743
1702338645571528000,33.28652783203125,9.86400032043457,-0.4399999976158142,-0.5740000009536743
1702338645671636200,33.38663623046875,9.86400032043457,-0.4399999976158142,-0.49799999594688416
1702338645771533300,33.486533203125,9.86400032043457,-0.4399999976158142,-0.49799999594688416
1702338645870718000,33.585718017578124,9.86400032043457,-0.4399999976158142,-0.49799999594688416
1702338645970068200,33.68506811523437,9.86400032043457,-0.4399999976158142,-0.5740000009536743
1702338646070065200,33.78506518554688,9.86400032043457,-0.4399999976158142,-0.5740000009536743
1702338646171533800,33.88653393554687,9.86400032043457,-0.4399999976158142,-0.49799999594688416
1702338646271524600,33.98652465820312,9.86400032043457,-0.4399999976158142,-0.49799999594688416
1702338646370070500,34.08507055664062,9.86400032043457,-0.4399999976158142,-0.49799999594688416
1702338646471523600,34.18652368164062,9.86400032043457,-0.4399999976158142,-0.49799999594688416
1702338646571525600,34.286525634765624,9.86400032043457,-0.4399999976158142,-0.49799999594688416
1702338646671532800,34.38653271484375,9.86400032043457,-0.4399999976158142,-0.5740000009536743
1702338646771531500,34.48653149414063,9.86400032043457,-0.4399999976158142,-0.49799999594688416
1702338646871522300,34.58652221679687,9.940999984741211,-0.4399999976158142,-0.5740000009536743
1702338646970065400,34.6850654296875,9.86400032043457,-0.4399999976158142,-0.49799999594688416
1702338647070419700,34.785419677734374,9.940999984741211,-0.4399999976158142,-0.49799999594688416
1702338647172002300,34.88700219726562,9.86400032043457,-0.4399999976158142,-0.49799999594688416
1702338647271528400,34.986528564453124,9.86400032043457,-0.3630000054836273,-0.5740000009536743
1702338647370063600,35.085063720703126,9.86400032043457,-0.4399999976158142,-0.49799999594688416
1702338647471639000,35.18663916015625,9.86400032043457,-0.4399999976158142,-0.49799999594688416
1702338647571535000,35.28653515625,9.86400032043457,-0.4399999976158142,-0.49799999594688416
1702338647674564000,35.389564208984375,9.86400032043457,-0.4399999976158142,-0.49799999594688416
1702338647770056400,35.485056396484374,9.86400032043457,-0.4399999976158142,-0.49799999594688416
1702338647870056000,35.585055908203124,9.86400032043457,-0.4399999976158142,-0.49799999594688416
1702338647970293500,35.68529345703125,9.86400032043457,-0.3630000054836273,-0.49799999594688416
1702338648071523000,35.78652319335937,9.86400032043457,-0.4399999976158142,-0.49799999594688416
1702338648170059800,35.88505981445312,9.86400032043457,-0.4399999976158142,-0.5740000009536743
1702338648270082800,35.985082763671876,9.86400032043457,-0.4399999976158142,-0.49799999594688416
1702338648370069800,36.08506982421875,9.86400032043457,-0.4399999976158142,-0.49799999594688416
1702338648470052400,36.18505224609375,9.940999984741211,-0.4399999976158142,-0.49799999594688416
1702338648571524900,36.28652490234375,9.86400032043457,-0.4399999976158142,-0.49799999594688416
1702338648670055700,36.3850556640625,9.940999984741211,-0.4399999976158142,-0.49799999594688416
1702338648771581700,36.48658178710937,9.86400032043457,-0.4399999976158142,-0.5740000009536743
1702338648871538400,36.58653833007813,9.940999984741211,-0.4399999976158142,-0.5740000009536743
1702338648971485200,36.68648510742187,9.86400032043457,-0.4399999976158142,-0.49799999594688416
1702338649071655700,36.78665576171875,9.86400032043457,-0.4399999976158142,-0.49799999594688416
1702338649171529000,36.886529052734375,9.940999984741211,-0.4399999976158142,-0.49799999594688416
1702338649271649300,36.986649169921876,9.86400032043457,-0.4399999976158142,-0.49799999594688416
1702338649370534100,37.0855341796875,9.86400032043457,-0.4399999976158142,-0.5740000009536743
1702338649471580700,37.18658056640625,9.86400032043457,-0.4399999976158142,-0.49799999594688416
1702338649571644700,37.28664477539063,9.86400032043457,-0.4399999976158142,-0.49799999594688416
1702338649671638300,37.38663818359375,9.86400032043457,-0.4399999976158142,-0.49799999594688416
1702338649771528700,37.48652880859375,9.86400032043457,-0.4399999976158142,-0.49799999594688416
1702338649870489000,37.585489013671875,9.86400032043457,-0.4399999976158142,-0.49799999594688416
1702338649970059300,37.685059326171874,9.86400032043457,-0.3630000054836273,-0.5740000009536743
1702338650070053600,37.7850537109375,9.86400032043457,-0.4399999976158142,-0.49799999594688416
1702338650170087700,37.88508764648437,9.86400032043457,-0.4399999976158142,-0.5740000009536743
1702338650271643400,37.986643310546874,9.86400032043457,-0.4399999976158142,-0.5740000009536743
1702338650370059300,38.08505932617187,9.940999984741211,-0.3630000054836273,-0.49799999594688416
1702338650470050000,38.185050048828124,9.86400032043457,-0.4399999976158142,-0.5740000009536743
1702338650571579400,38.286579345703124,9.86400032043457,-0.4399999976158142,-0.5740000009536743
1702338650671524600,38.38652465820312,9.86400032043457,-0.4399999976158142,-0.5740000009536743
1702338650771525600,38.48652563476563,9.86400032043457,-0.4399999976158142,-0.49799999594688416
1702338650871526000,38.58652587890625,9.86400032043457,-0.4399999976158142,-0.49799999594688416
1702338650970082000,38.68508203125,9.86400032043457,-0.3630000054836273,-0.49799999594688416
1702338651070058500,38.78505859375,9.86400032043457,-0.4399999976158142,-0.5740000009536743
1702338651170153200,38.8851533203125,9.86400032043457,-0.4399999976158142,-0.5740000009536743
1702338651271642000,38.98664208984375,9.86400032043457,-0.4399999976158142,-0.49799999594688416
1702338651370075000,39.085074951171876,9.86400032043457,-0.4399999976158142,-0.49799999594688416
1702338651471972600,39.18697265625,9.86400032043457,-0.4399999976158142,-0.49799999594688416
1702338651570082300,39.28508227539062,9.86400032043457,-0.4399999976158142,-0.5740000009536743
1702338651671638300,39.38663818359375,9.86400032043457,-0.4399999976158142,-0.49799999594688416
1702338651771523300,39.4865234375,9.940999984741211,-0.4399999976158142,-0.49799999594688416
1702338651871648000,39.58664794921875,9.86400032043457,-0.4399999976158142,-0.49799999594688416
1702338651971468500,39.686468505859374,9.86400032043457,-0.4399999976158142,-0.49799999594688416
1702338652071636000,39.78663598632812,9.86400032043457,-0.4399999976158142,-0.49799999594688416
1702338652171650600,39.88665063476562,9.86400032043457,-0.3630000054836273,-0.5740000009536743
1702338652271634700,39.986634765625,9.940999984741211,-0.4399999976158142,-0.49799999594688416
1702338652370069200,40.0850693359375,9.86400032043457,-0.4399999976158142,-0.49799999594688416
1702338652470153500,40.185153564453124,9.86400032043457,-0.4399999976158142,-0.49799999594688416
1702338652571526400,40.2865263671875,9.86400032043457,-0.4399999976158142,-0.49799999594688416
1702338652670084400,40.38508447265625,9.86400032043457,-0.4399999976158142,-0.49799999594688416
1702338652770059500,40.4850595703125,9.86400032043457,-0.4399999976158142,-0.49799999594688416
1702338652871521500,40.586521484375,9.86400032043457,-0.4399999976158142,-0.49799999594688416
1702338652971583000,40.6865830078125,9.86400032043457,-0.3630000054836273,-0.49799999594688416
1702338653071524600,40.78652465820313,9.86400032043457,-0.4399999976158142,-0.5740000009536743
1702338653170058500,40.88505859375,9.86400032043457,-0.3630000054836273,-0.5740000009536743
1702338653270061600,40.9850615234375,9.86400032043457,-0.4399999976158142,-0.8040000200271606
1702338653370074400,41.085074462890624,9.86400032043457,-0.3630000054836273,-0.5740000009536743
1702338653470050600,41.185050537109376,9.86400032043457,-0.4399999976158142,-0.5740000009536743
1702338653571526000,41.28652587890625,9.86400032043457,-0.28700000047683716,-0.8809999823570251
1702338653670058800,41.385058837890625,10.093999862670898,-0.3630000054836273,-0.5740000009536743
1702338653771637800,41.4866376953125,9.25100040435791,-0.4399999976158142,-0.5740000009536743
1702338653870852900,41.58585278320312,10.017000198364258,-0.4399999976158142,-0.5740000009536743
1702338653971509800,41.686509765625,9.86400032043457,-0.4399999976158142,-0.5740000009536743
1702338654071555000,41.78655517578125,9.86400032043457,-0.4399999976158142,-0.5740000009536743
1702338654171524400,41.8865244140625,9.86400032043457,-0.4399999976158142,-0.5740000009536743
1702338654271639000,41.98663916015625,9.86400032043457,-0.4399999976158142,-0.5740000009536743
1702338654370071800,42.08507177734375,9.86400032043457,-0.4399999976158142,-0.5740000009536743
1702338654471522600,42.1865224609375,9.86400032043457,-0.4399999976158142,-0.5740000009536743
1702338654571530200,42.2865302734375,9.86400032043457,-0.4399999976158142,-0.5740000009536743
1702338654671534300,42.386534423828124,9.86400032043457,-0.4399999976158142,-0.5740000009536743
1702338654771524400,42.4865244140625,9.940999984741211,-0.4399999976158142,-0.5740000009536743
1702338654871525400,42.586525390625,9.86400032043457,-0.4399999976158142,-0.5740000009536743
1702338654971571200,42.6865712890625,9.940999984741211,-0.4399999976158142,-0.5740000009536743
1702338655071524400,42.7865244140625,9.86400032043457,-0.4399999976158142,-0.5740000009536743
1702338655171523800,42.88652392578125,9.86400032043457,-0.4399999976158142,-0.5740000009536743
1702338655271525000,42.986525146484375,9.86400032043457,-0.4399999976158142,-0.5740000009536743
1702338655370067000,43.08506689453125,9.86400032043457,-0.4399999976158142,-0.5740000009536743
1702338655470049300,43.18504931640625,9.86400032043457,-0.4399999976158142,-0.5740000009536743
1702338655570064600,43.285064697265625,9.86400032043457,-0.4399999976158142,-0.5740000009536743
1702338655671524400,43.3865244140625,9.86400032043457,-0.4399999976158142,-0.5740000009536743
1702338655771524600,43.48652465820312,9.86400032043457,-0.4399999976158142,-0.5740000009536743
1702338655871536600,43.58653662109375,9.86400032043457,-0.3630000054836273,-0.5740000009536743
1702338655970068500,43.685068359375,9.86400032043457,-0.3630000054836273,-0.5740000009536743
1702338656070420500,43.78542041015625,9.86400032043457,-0.4399999976158142,-0.5740000009536743
1702338656171650000,43.88665014648438,9.86400032043457,-0.4399999976158142,-0.5740000009536743
1702338656271532800,43.98653271484375,9.86400032043457,-0.4399999976158142,-0.5740000009536743
1702338656370259000,44.08525903320312,9.86400032043457,-0.4399999976158142,-0.5740000009536743
1702338656471638000,44.18663793945313,9.86400032043457,-0.4399999976158142,-0.5740000009536743
1702338656571639600,44.2866396484375,9.86400032043457,-0.4399999976158142,-0.5740000009536743
1702338656670497800,44.38549780273438,9.86400032043457,-0.4399999976158142,-0.5740000009536743
1702338656771529000,44.486529052734376,9.940999984741211,-0.4399999976158142,-0.5740000009536743
1702338656871526100,44.58652612304687,9.86400032043457,-0.4399999976158142,-0.5740000009536743
1702338656971571000,44.68657104492188,9.86400032043457,-0.4399999976158142,-0.5740000009536743
1702338657071525000,44.78652514648437,9.86400032043457,-0.4399999976158142,-0.5740000009536743
1702338657171548200,44.88654809570313,9.86400032043457,-0.4399999976158142,-0.5740000009536743
1702338657271533000,44.98653295898438,9.86400032043457,-0.4399999976158142,-0.5740000009536743
1702338657370066700,45.08506665039062,9.86400032043457,-0.4399999976158142,-0.5740000009536743
1702338657470052000,45.185052001953125,9.86400032043457,-0.3630000054836273,-0.5740000009536743
1702338657571531500,45.286531494140625,9.86400032043457,-0.4399999976158142,-0.5740000009536743
1702338657670143700,45.385143798828125,9.86400032043457,-0.4399999976158142,-0.5740000009536743
1702338657770063600,45.485063720703124,9.86400032043457,-0.4399999976158142,-0.5740000009536743
1702338657870058500,45.58505859375,9.86400032043457,-0.4399999976158142,-0.5740000009536743
1702338657971524600,45.686524658203126,9.86400032043457,-0.4399999976158142,-0.5740000009536743
1702338658070058200,45.78505834960937,9.940999984741211,-0.4399999976158142,-0.5740000009536743
1702338658171521800,45.886521728515625,9.86400032043457,-0.4399999976158142,-0.5740000009536743
1702338658270065200,45.98506518554687,9.86400032043457,-0.4399999976158142,-0.5740000009536743
1702338658370080300,46.085080322265625,9.86400032043457,-0.4399999976158142,-0.5740000009536743
1702338658471121200,46.18612109375,9.940999984741211,-0.4399999976158142,-0.5740000009536743
1702338658571588400,46.28658837890625,9.940999984741211,-0.4399999976158142,-0.5740000009536743
1702338658671636000,46.38663598632812,9.86400032043457,-0.4399999976158142,-0.5740000009536743
1702338658770058200,46.485058349609375,9.86400032043457,-0.4399999976158142,-0.5740000009536743
1702338658871651800,46.58665185546875,9.86400032043457,-0.4399999976158142,-0.5740000009536743
1702338658971530200,46.6865302734375,9.86400032043457,-0.4399999976158142,-0.5740000009536743
1702338659071528000,46.78652783203125,9.86400032043457,-0.4399999976158142,-0.5740000009536743
1702338659171643100,46.88664306640625,9.86400032043457,-0.3630000054836273,-0.5740000009536743
1702338659271523800,46.98652392578125,9.86400032043457,-0.4399999976158142,-0.5740000009536743
1702338659370056200,47.08505615234375,9.86400032043457,-0.4399999976158142,-0.5740000009536743
1702338659471537000,47.18653686523437,9.86400032043457,-0.4399999976158142,-0.5740000009536743
1702338659571525400,47.286525390625,9.86400032043457,-0.4399999976158142,-0.5740000009536743
1702338659671526100,47.38652612304688,9.86400032043457,-0.4399999976158142,-0.5740000009536743
1702338659771655000,47.48665502929688,9.86400032043457,-0.4399999976158142,-0.5740000009536743
1702338659871464700,47.58646459960938,9.86400032043457,-0.3630000054836273,-0.5740000009536743
1702338659971479300,47.68647924804687,9.940999984741211,-0.4399999976158142,-0.5740000009536743
1702338660071637500,47.78663745117188,9.86400032043457,-0.4399999976158142,-0.5740000009536743
1702338660170058800,47.885058837890625,9.86400032043457,-0.4399999976158142,-0.5740000009536743
1702338660270103600,47.985103515625,9.86400032043457,-0.4399999976158142,-0.5740000009536743
1702338660370062300,48.08506225585938,9.940999984741211,-0.4399999976158142,-0.5740000009536743
1702338660471525600,48.18652563476562,9.86400032043457,-0.4399999976158142,-0.5740000009536743
1702338660571640600,48.286640625,9.86400032043457,-0.4399999976158142,-0.5740000009536743
1702338660671531300,48.38653125,9.86400032043457,-0.4399999976158142,-0.5740000009536743
1702338660771526400,48.4865263671875,9.86400032043457,-0.4399999976158142,-0.5740000009536743
1702338660871641000,48.58664111328125,9.86400032043457,-0.4399999976158142,-0.5740000009536743
1702338660970047200,48.68504711914063,9.86400032043457,-0.4399999976158142,-0.5740000009536743
1702338661070061600,48.7850615234375,9.86400032043457,-0.4399999976158142,-0.5740000009536743
1702338661170068000,48.88506787109375,9.86400032043457,-0.4399999976158142,-0.5740000009536743
1702338661271524600,48.98652465820312,9.86400032043457,-0.3630000054836273,-0.5740000009536743
1702338661370060800,49.08506079101563,9.86400032043457,-0.3630000054836273,-0.5740000009536743
1702338661470060300,49.18506030273438,9.86400032043457,-0.4399999976158142,-0.5740000009536743
1702338661571645700,49.286645751953124,9.940999984741211,-0.4399999976158142,-0.5740000009536743
1702338661671526400,49.3865263671875,9.86400032043457,-0.4399999976158142,-0.5740000009536743
1702338661771525600,49.48652563476563,9.86400032043457,-0.4399999976158142,-0.5740000009536743
1702338661871636700,49.58663671875,9.86400032043457,-0.4399999976158142,-0.5740000009536743
1702338661971468800,49.68646875,9.86400032043457,-0.4399999976158142,-0.5740000009536743
1702338662071639000,49.78663916015625,9.86400032043457,-0.4399999976158142,-0.5740000009536743
1702338662171526000,49.88652587890625,9.86400032043457,-0.4399999976158142,-0.5740000009536743
1702338662270063000,49.98506298828125,9.86400032043457,-0.4399999976158142,-0.5740000009536743
1702338662370066000,50.08506591796875,9.86400032043457,-0.4399999976158142,-0.5740000009536743
1702338662470055700,50.1850556640625,9.86400032043457,-0.4399999976158142,-0.5740000009536743
1702338662570564000,50.285564208984376,9.86400032043457,-0.4399999976158142,-0.5740000009536743
1702338662671526000,50.38652587890625,9.86400032043457,-0.4399999976158142,-0.5740000009536743
1702338662770076400,50.48507641601562,9.86400032043457,-0.4399999976158142,-0.5740000009536743
1702338662870051600,50.58505151367188,9.86400032043457,-0.4399999976158142,-0.5740000009536743
1702338662970066400,50.68506640625,9.86400032043457,-0.4399999976158142,-0.5740000009536743
1702338663070083300,50.785083251953125,9.86400032043457,-0.4399999976158142,-0.5740000009536743
1702338663175874600,50.89087451171875,9.86400032043457,-0.4399999976158142,-0.5740000009536743
1702338663271532300,50.9865322265625,9.940999984741211,-0.4399999976158142,-0.5740000009536743
1702338663370069800,51.08506982421875,9.86400032043457,-0.4399999976158142,-0.5740000009536743
1702338663471521000,51.18652099609375,9.86400032043457,-0.4399999976158142,-0.49799999594688416
1702338663571527400,51.28652734375,9.86400032043457,-0.4399999976158142,-0.5740000009536743
1702338663671523300,51.3865234375,9.86400032043457,-0.4399999976158142,-0.5740000009536743
1702338663770058000,51.48505810546875,9.86400032043457,-0.4399999976158142,-0.5740000009536743
1702338663870061800,51.585061767578125,9.940999984741211,-0.4399999976158142,-0.5740000009536743
1702338663970061600,51.6850615234375,9.86400032043457,-0.4399999976158142,-0.5740000009536743
1702338664071635500,51.78663549804688,9.940999984741211,-0.4399999976158142,-0.5740000009536743
1702338664171604500,51.8866044921875,9.86400032043457,-0.4399999976158142,-0.5740000009536743
1702338664270104300,51.98510424804687,9.86400032043457,-0.4399999976158142,-0.5740000009536743
1702338664370148900,52.08514892578125,9.940999984741211,-0.4399999976158142,-0.5740000009536743
1702338664470061300,52.185061279296875,9.86400032043457,-0.4399999976158142,-0.5740000009536743
1702338664570104300,52.28510424804688,9.86400032043457,-0.4399999976158142,-0.5740000009536743
1702338664671526700,52.38652661132812,9.86400032043457,-0.4399999976158142,-0.5740000009536743
1702338664771524000,52.48652416992188,9.86400032043457,-0.4399999976158142,-0.5740000009536743
1702338664871527200,52.58652709960938,9.86400032043457,-0.4399999976158142,-0.5740000009536743
1702338664971580200,52.686580078125,9.86400032043457,-0.4399999976158142,-0.5740000009536743
1702338665071648000,52.78664794921875,9.86400032043457,-0.3630000054836273,-0.5740000009536743
1702338665171638000,52.886637939453124,9.86400032043457,-0.4399999976158142,-0.5740000009536743
1702338665271523600,52.98652368164063,9.86400032043457,-0.4399999976158142,-0.5740000009536743
1702338665370058500,53.08505859375,9.86400032043457,-0.4399999976158142,-0.5740000009536743
1702338665471530200,53.1865302734375,9.86400032043457,-0.4399999976158142,-0.5740000009536743
1702338665571523300,53.2865234375,9.86400032043457,-0.4399999976158142,-0.5740000009536743
1702338665671524400,53.3865244140625,9.86400032043457,-0.3630000054836273,-0.5740000009536743
1702338665771522300,53.48652221679688,9.86400032043457,-0.4399999976158142,-0.5740000009536743
1702338665871535600,53.58653564453125,9.940999984741211,-0.4399999976158142,-0.5740000009536743
1702338665971463700,53.686463623046876,9.86400032043457,-0.4399999976158142,-0.5740000009536743
1702338666070084400,53.78508447265625,9.940999984741211,-0.4399999976158142,-0.5740000009536743
1702338666170054700,53.8850546875,9.86400032043457,-0.4399999976158142,-0.5740000009536743
1702338666270059500,53.9850595703125,9.86400032043457,-0.4399999976158142,-0.5740000009536743
1702338666370060800,54.08506079101563,9.86400032043457,-0.4399999976158142,-0.5740000009536743
1702338666470058000,54.18505810546875,9.86400032043457,-0.4399999976158142,-0.5740000009536743
1702338666571525400,54.286525390625,9.86400032043457,-0.4399999976158142,-0.5740000009536743
1702338666671521800,54.386521728515625,9.86400032043457,-0.3630000054836273,-0.5740000009536743
1702338666771531500,54.48653149414063,9.86400032043457,-0.4399999976158142,-0.5740000009536743
1702338666870067500,54.5850673828125,9.86400032043457,-0.4399999976158142,-0.5740000009536743
1702338666970799600,54.685799560546876,9.86400032043457,-0.4399999976158142,-0.5740000009536743
1702338667071575800,54.786575927734376,9.86400032043457,-0.4399999976158142,-0.5740000009536743
1702338667171524900,54.88652490234375,9.86400032043457,-0.4399999976158142,-0.5740000009536743
1702338667270065400,54.9850654296875,9.86400032043457,-0.4399999976158142,-0.5740000009536743
1702338667370061600,55.0850615234375,9.86400032043457,-0.4399999976158142,-0.5740000009536743
1702338667471526400,55.1865263671875,9.86400032043457,-0.4399999976158142,-0.5740000009536743
1702338667571524400,55.2865244140625,9.940999984741211,-0.4399999976158142,-0.5740000009536743
1702338667670066000,55.38506591796875,9.86400032043457,-0.4399999976158142,-0.5740000009536743
1702338667770443300,55.485443359375,9.940999984741211,-0.4399999976158142,-0.49799999594688416
1702338667873552100,55.58855224609375,9.86400032043457,-0.4399999976158142,-0.5740000009536743
1702338667971472100,55.68647216796875,9.86400032043457,-0.4399999976158142,-0.5740000009536743
1702338668071652400,55.78665234375,9.86400032043457,-0.4399999976158142,-0.5740000009536743
1702338668171528400,55.88652856445312,9.86400032043457,-0.4399999976158142,-0.5740000009536743
1702338668271534300,55.986534423828125,9.86400032043457,-0.3630000054836273,-0.5740000009536743
1702338668370055400,56.08505541992187,9.86400032043457,-0.4399999976158142,-0.5740000009536743
1702338668471472000,56.18647216796875,9.86400032043457,-0.4399999976158142,-0.5740000009536743
1702338668571534600,56.28653466796875,9.86400032043457,-0.4399999976158142,-0.5740000009536743
1702338668671527400,56.38652734375,9.86400032043457,-0.4399999976158142,-0.5740000009536743
1702338668770057700,56.4850576171875,9.86400032043457,-0.4399999976158142,-0.49799999594688416
1702338668870382800,56.5853828125,9.86400032043457,-0.3630000054836273,-0.5740000009536743
1702338668970062000,56.68506201171875,9.940999984741211,-0.3630000054836273,-0.5740000009536743
1702338669070062600,56.7850625,9.86400032043457,-0.4399999976158142,-0.5740000009536743
1702338669171465200,56.88646533203125,9.86400032043457,-0.4399999976158142,-0.5740000009536743
1702338669270104800,56.985104736328125,9.86400032043457,-0.4399999976158142,-0.5740000009536743
1702338669370062800,57.08506274414062,9.940999984741211,-0.4399999976158142,-0.5740000009536743
1702338669471532300,57.1865322265625,9.940999984741211,-0.4399999976158142,-0.5740000009536743
1702338669570292200,57.285292236328125,9.86400032043457,-0.4399999976158142,-0.5740000009536743
1702338669670464000,57.385464111328126,9.86400032043457,-0.4399999976158142,-0.5740000009536743
1702338669771535000,57.48653515625,9.940999984741211,-0.4399999976158142,-0.5740000009536743
1702338669871532000,57.586531982421874,9.86400032043457,-0.4399999976158142,-0.5740000009536743
1702338669971585300,57.686585205078124,9.86400032043457,-0.4399999976158142,-0.5740000009536743
1702338670071639800,57.78663989257812,9.86400032043457,-0.4399999976158142,-0.5740000009536743
1702338670170084400,57.88508447265625,9.86400032043457,-0.4399999976158142,-0.5740000009536743
1702338670271651000,57.986651123046876,9.86400032043457,-0.4399999976158142,-0.5740000009536743
1702338670370079500,58.08507958984375,9.940999984741211,-0.3630000054836273,-0.5740000009536743
1702338670471583200,58.186583251953124,9.940999984741211,-0.4399999976158142,-0.5740000009536743
1702338670571526100,58.286526123046876,9.86400032043457,-0.4399999976158142,-0.5740000009536743
1702338670671636500,58.386636474609375,9.86400032043457,-0.4399999976158142,-0.5740000009536743
1702338670770489300,58.4854892578125,9.86400032043457,-0.4399999976158142,-0.5740000009536743
1702338670871636500,58.58663647460938,9.86400032043457,-0.4399999976158142,-0.5740000009536743
1702338670971572000,58.68657202148437,9.86400032043457,-0.4399999976158142,-0.5740000009536743
1702338671070058500,58.78505859375,9.86400032043457,-0.4399999976158142,-0.5740000009536743
1702338671171647200,58.886647216796874,9.86400032043457,-0.4399999976158142,-0.5740000009536743
1702338671271639000,58.98663916015625,9.86400032043457,-0.3630000054836273,-0.5740000009536743
1702338671370066200,59.08506616210938,9.86400032043457,-0.4399999976158142,-0.5740000009536743
1702338671470049500,59.18504956054687,9.86400032043457,-0.4399999976158142,-0.5740000009536743
1702338671571534800,59.286534912109374,9.86400032043457,-0.4399999976158142,-0.49799999594688416
1702338671671637800,59.3866376953125,9.86400032043457,-0.4399999976158142,-0.5740000009536743
1702338671771636700,59.48663671875,9.86400032043457,-0.4399999976158142,-0.5740000009536743
1702338671871639300,59.586639404296875,9.86400032043457,-0.4399999976158142,-0.5740000009536743
1702338671971570700,59.68657080078125,9.86400032043457,-0.4399999976158142,-0.5740000009536743
1702338672071644200,59.78664404296875,9.86400032043457,-0.4399999976158142,-0.5740000009536743
1702338672171636200,59.88663623046875,9.86400032043457,-0.4399999976158142,-0.5740000009536743
1702338672271526100,59.98652612304687,9.940999984741211,-0.4399999976158142,-0.5740000009536743
1702338672370070800,60.08507080078125,9.86400032043457,-0.4399999976158142,-0.5740000009536743
1702338672471648300,60.186648193359375,9.86400032043457,-0.4399999976158142,-0.5740000009536743
1702338672571528000,60.28652783203125,9.86400032043457,-0.3630000054836273,-0.5740000009536743
1702338672671532300,60.3865322265625,9.86400032043457,-0.4399999976158142,-0.5740000009536743
1702338672770064400,60.485064453125,9.86400032043457,-0.4399999976158142,-0.5740000009536743
1702338672870056400,60.585056396484376,9.940999984741211,-0.4399999976158142,-0.5740000009536743
1702338672971654700,60.68665454101563,9.86400032043457,-0.4399999976158142,-0.5740000009536743
1702338673071525400,60.786525390625,9.86400032043457,-0.4399999976158142,-0.5740000009536743
1702338673171521800,60.886521728515625,9.86400032043457,-0.4399999976158142,-0.5740000009536743
1702338673270063900,60.98506396484375,9.86400032043457,-0.4399999976158142,-0.5740000009536743
1702338673370067500,61.0850673828125,9.86400032043457,-0.4399999976158142,-0.5740000009536743
1702338673470060000,61.18506005859375,9.86400032043457,-0.4399999976158142,-0.5740000009536743
1702338673571464000,61.2864638671875,9.86400032043457,-0.4399999976158142,-0.5740000009536743
1702338673670103800,61.38510375976563,9.86400032043457,-0.4399999976158142,-0.5740000009536743
1702338673771567600,61.486567626953125,9.86400032043457,-0.4399999976158142,-0.5740000009536743
1702338673870058200,61.585058349609376,9.86400032043457,-0.4399999976158142,-0.5740000009536743
1702338673971581200,61.68658129882812,9.940999984741211,-0.4399999976158142,-0.5740000009536743
1702338674071474000,61.786473876953124,9.86400032043457,-0.4399999976158142,-0.5740000009536743
1702338674171524000,61.88652416992188,9.86400032043457,-0.4399999976158142,-0.5740000009536743
1702338674271648500,61.9866484375,9.86400032043457,-0.3630000054836273,-0.5740000009536743
1702338674370084400,62.08508447265625,9.86400032043457,-0.4399999976158142,-0.5740000009536743
1702338674470064400,62.185064453125,9.86400032043457,-0.4399999976158142,-0.5740000009536743
1702338674571526400,62.2865263671875,9.86400032043457,-0.4399999976158142,-0.5740000009536743
1702338674671650600,62.38665063476562,9.86400032043457,-0.4399999976158142,-0.5740000009536743
1702338674771526700,62.486526611328124,9.86400032043457,-0.4399999976158142,-0.5740000009536743
1702338674871637500,62.586637451171875,9.86400032043457,-0.4399999976158142,-0.5740000009536743
1702338674970063000,62.68506298828125,9.86400032043457,-0.4399999976158142,-0.5740000009536743
1702338675070053600,62.7850537109375,9.86400032043457,-0.4399999976158142,-0.5740000009536743
1702338675170089500,62.88508935546875,9.86400032043457,-0.4399999976158142,-0.5740000009536743
1702338675270170600,62.98517065429687,9.86400032043457,-0.4399999976158142,-0.5740000009536743
1702338675370255600,63.085255615234374,9.86400032043457,-0.4399999976158142,-0.5740000009536743
1702338675470050600,63.185050537109376,9.940999984741211,-0.4399999976158142,-0.5740000009536743
1702338675571463200,63.286463134765626,9.86400032043457,-0.4399999976158142,-0.5740000009536743
1702338675671524600,63.38652465820312,9.86400032043457,-0.4399999976158142,-0.5740000009536743
1702338675771523800,63.48652392578125,9.86400032043457,-0.4399999976158142,-0.5740000009536743
1702338675871566000,63.58656616210938,9.86400032043457,-0.4399999976158142,-0.5740000009536743
1702338675970058500,63.68505859375,9.86400032043457,-0.4399999976158142,-0.5740000009536743
1702338676070088400,63.78508837890625,9.86400032043457,-0.4399999976158142,-0.5740000009536743
1702338676170068000,63.88506787109375,9.86400032043457,-0.4399999976158142,-0.5740000009536743
1702338676271524000,63.98652416992188,9.86400032043457,-0.4399999976158142,-0.5740000009536743
1702338676370062600,64.0850625,9.86400032043457,-0.4399999976158142,-0.5740000009536743
1702338676470057000,64.18505688476563,9.86400032043457,-0.3630000054836273,-0.5740000009536743
1702338676571525600,64.28652563476562,9.86400032043457,-0.4399999976158142,-0.5740000009536743
1702338676671525400,64.386525390625,9.86400032043457,-0.4399999976158142,-0.5740000009536743
1702338676771527000,64.48652685546875,9.86400032043457,-0.4399999976158142,-0.5740000009536743
1702338676871530200,64.5865302734375,9.86400032043457,-0.4399999976158142,-0.5740000009536743
1702338676970067700,64.68506762695313,9.86400032043457,-0.4399999976158142,-0.5740000009536743
1702338677070905900,64.78590576171875,9.86400032043457,-0.4399999976158142,-0.5740000009536743
1702338677171698000,64.88669799804687,9.86400032043457,-0.4399999976158142,-0.5740000009536743
1702338677271543300,64.98654321289062,9.86400032043457,-0.4399999976158142,-0.5740000009536743
1702338677370066700,65.08506665039063,9.633999824523926,-0.3630000054836273,-0.5740000009536743
1702338677470051000,65.18505102539062,9.86400032043457,-0.4399999976158142,-0.5740000009536743
1702338677571638000,65.28663793945313,9.86400032043457,-0.4399999976158142,-0.5740000009536743
1702338677671524000,65.38652416992187,9.940999984741211,-0.4399999976158142,-0.5740000009536743
1702338677770081500,65.48508154296874,9.940999984741211,-0.4399999976158142,-0.6510000228881836
1702338677870056400,65.58505639648438,10.017000198364258,-0.4399999976158142,-0.5740000009536743
1702338677970065400,65.6850654296875,9.711000442504883,-0.4399999976158142,-0.5740000009536743
1702338678071530200,65.7865302734375,9.711000442504883,-0.3630000054836273,-0.6510000228881836
1702338678171661000,65.8866611328125,9.940999984741211,-0.4399999976158142,-0.5740000009536743
1702338678271524900,65.98652490234375,9.86400032043457,-0.4399999976158142,-0.5740000009536743
1702338678370067200,66.08506713867187,9.940999984741211,-0.4399999976158142,-0.5740000009536743
1702338678471524900,66.18652490234375,9.86400032043457,-0.4399999976158142,-0.5740000009536743
1702338678570058500,66.28505859375,9.86400032043457,-0.4399999976158142,-0.5740000009536743
1702338678671642000,66.38664208984375,9.940999984741211,-0.4399999976158142,-0.5740000009536743
1702338678770058500,66.48505859375,9.86400032043457,-0.4399999976158142,-0.5740000009536743
1702338678871526100,66.58652612304688,9.86400032043457,-0.3630000054836273,-0.5740000009536743
1702338678971478500,66.686478515625,9.86400032043457,-0.4399999976158142,-0.5740000009536743
1702338679070058000,66.78505810546875,9.86400032043457,-0.4399999976158142,-0.5740000009536743
1702338679170062300,66.88506225585938,9.86400032043457,-0.4399999976158142,-0.5740000009536743
1702338679271640300,66.98664038085937,9.86400032043457,-0.4399999976158142,-0.5740000009536743
1702338679370066200,67.08506616210937,9.86400032043457,-0.4399999976158142,-0.5740000009536743
1702338679470058000,67.18505810546876,9.940999984741211,-0.3630000054836273,-0.5740000009536743
1702338679571527000,67.28652685546875,9.86400032043457,-0.4399999976158142,-0.5740000009536743
1702338679670231300,67.38523120117188,9.86400032043457,-0.3630000054836273,-0.5740000009536743
1702338679771526100,67.48652612304687,9.940999984741211,-0.4399999976158142,-0.5740000009536743
1702338679871618300,67.58661840820312,9.86400032043457,-0.4399999976158142,-0.5740000009536743
1702338679971575300,67.6865751953125,9.940999984741211,-0.4399999976158142,-0.5740000009536743
1702338680071526400,67.7865263671875,9.86400032043457,-0.3630000054836273,-0.5740000009536743
1702338680171638300,67.88663818359375,9.86400032043457,-0.4399999976158142,-0.5740000009536743
1702338680271638000,67.98663793945312,9.86400032043457,-0.4399999976158142,-0.5740000009536743
1702338680370061800,68.08506176757813,9.86400032043457,-0.4399999976158142,-0.5740000009536743
1702338680471525000,68.18652514648437,9.940999984741211,-0.4399999976158142,-0.5740000009536743
1702338680571501000,68.2865009765625,9.86400032043457,-0.4399999976158142,-0.5740000009536743
1702338680671525600,68.38652563476562,9.86400032043457,-0.4399999976158142,-0.5740000009536743
1702338680771644700,68.48664477539063,9.86400032043457,-0.3630000054836273,-0.5740000009536743
1702338680871560200,68.58656030273437,9.86400032043457,-0.4399999976158142,-0.5740000009536743
1702338680970264600,68.6852646484375,9.86400032043457,-0.4399999976158142,-0.5740000009536743
1702338681070081000,68.7850810546875,9.86400032043457,-0.4399999976158142,-0.5740000009536743
1702338681170069200,68.8850693359375,9.86400032043457,-0.3630000054836273,-0.5740000009536743
1702338681271533600,68.98653344726563,9.86400032043457,-0.4399999976158142,-0.5740000009536743
1702338681370078200,69.085078125,9.86400032043457,-0.4399999976158142,-0.5740000009536743
1702338681470054000,69.18505395507813,9.940999984741211,-0.4399999976158142,-0.5740000009536743
1702338681571523600,69.28652368164063,9.86400032043457,-0.4399999976158142,-0.5740000009536743
1702338681671646000,69.38664599609375,9.86400032043457,-0.4399999976158142,-0.5740000009536743
1702338681771638800,69.486638671875,9.86400032043457,-0.4399999976158142,-0.5740000009536743
1702338681871635500,69.58663549804687,9.86400032043457,-0.4399999976158142,-0.5740000009536743
1702338681971572700,69.68657275390625,9.86400032043457,-0.4399999976158142,-0.5740000009536743
1702338682071646500,69.786646484375,9.86400032043457,-0.4399999976158142,-0.5740000009536743
1702338682171527200,69.88652709960938,9.86400032043457,-0.4399999976158142,-0.5740000009536743
1702338682271637000,69.98663696289063,9.940999984741211,-0.4399999976158142,-0.5740000009536743
1702338682370071300,70.0850712890625,9.86400032043457,-0.4399999976158142,-0.5740000009536743
1702338682470050800,70.18505078125,9.86400032043457,-0.4399999976158142,-0.5740000009536743
1702338682571532300,70.2865322265625,9.940999984741211,-0.4399999976158142,-0.5740000009536743
1702338682670074000,70.38507421875,9.86400032043457,-0.4399999976158142,-0.5740000009536743
1702338682771525600,70.48652563476563,9.86400032043457,-0.4399999976158142,-0.5740000009536743
1702338682871521800,70.58652172851562,9.86400032043457,-0.4399999976158142,-0.5740000009536743
1702338682970059800,70.68505981445313,9.86400032043457,-0.4399999976158142,-0.5740000009536743
1702338683071524900,70.78652490234376,9.86400032043457,-0.3630000054836273,-0.5740000009536743
1702338683171525400,70.886525390625,9.86400032043457,-0.3630000054836273,-0.5740000009536743
1702338683271524900,70.98652490234375,9.86400032043457,-0.4399999976158142,-0.5740000009536743
1702338683370073600,71.08507348632813,9.86400032043457,-0.4399999976158142,-0.5740000009536743
1702338683471571200,71.1865712890625,9.86400032043457,-0.4399999976158142,-0.5740000009536743
1702338683571525000,71.28652514648438,9.86400032043457,-0.4399999976158142,-0.5740000009536743
1702338683671523800,71.38652392578125,9.86400032043457,-0.4399999976158142,-0.5740000009536743
1702338683770056400,71.48505639648438,9.86400032043457,-0.3630000054836273,-0.5740000009536743
1702338683870059300,71.58505932617187,9.86400032043457,-0.4399999976158142,-0.5740000009536743
1702338683971572000,71.68657202148438,9.86400032043457,-0.4399999976158142,-0.5740000009536743
1702338684071525000,71.78652514648438,9.86400032043457,-0.3630000054836273,-0.5740000009536743
1702338684171673000,71.88667309570313,9.86400032043457,-0.4399999976158142,-0.6510000228881836
1702338684270456000,71.9854560546875,9.86400032043457,-0.4399999976158142,-0.5740000009536743
1702338684370667300,72.08566723632812,9.86400032043457,-0.4399999976158142,-0.5740000009536743
1702338684471577900,72.18657788085937,9.86400032043457,-0.4399999976158142,-0.5740000009536743
1702338684571638800,72.286638671875,9.86400032043457,-0.4399999976158142,-0.5740000009536743
1702338684672363300,72.38736328125,9.86400032043457,-0.4399999976158142,-0.5740000009536743
1702338684771531800,72.48653173828124,9.86400032043457,-0.4399999976158142,-0.5740000009536743
1702338684871526400,72.5865263671875,9.940999984741211,-0.4399999976158142,-0.5740000009536743
1702338684971471000,72.68647119140626,9.86400032043457,-0.4399999976158142,-0.6510000228881836
1702338685071523800,72.78652392578125,9.86400032043457,-0.4399999976158142,-0.5740000009536743
1702338685171533800,72.88653393554688,9.86400032043457,-0.3630000054836273,-0.5740000009536743
1702338685271501600,72.98650146484376,9.86400032043457,-0.4399999976158142,-0.5740000009536743
1702338685370072300,73.085072265625,9.86400032043457,-0.3630000054836273,-0.5740000009536743
1702338685471095300,73.18609521484375,9.86400032043457,-0.4399999976158142,-0.5740000009536743
1702338685571536600,73.28653662109375,9.86400032043457,-0.4399999976158142,-0.5740000009536743
1702338685671528400,73.38652856445313,9.86400032043457,-0.4399999976158142,-0.5740000009536743
1702338685771502600,73.48650268554688,9.86400032043457,-0.4399999976158142,-0.5740000009536743
1702338685870063000,73.58506298828125,9.86400032043457,-0.3630000054836273,-0.5740000009536743
1702338685971520800,73.68652075195313,9.86400032043457,-0.4399999976158142,-0.5740000009536743
1702338686070072000,73.78507202148438,9.86400032043457,-0.4399999976158142,-0.5740000009536743
1702338686170056000,73.88505590820313,9.86400032043457,-0.4399999976158142,-0.5740000009536743
1702338686270409200,73.9854091796875,9.86400032043457,-0.4399999976158142,-0.5740000009536743
1702338686370055400,74.08505541992187,9.86400032043457,-0.4399999976158142,-0.5740000009536743
1702338686470329300,74.18532934570312,9.86400032043457,-0.4399999976158142,-0.5740000009536743
1702338686571776800,74.28677685546874,9.86400032043457,-0.3630000054836273,-0.5740000009536743
1702338686671524900,74.38652490234375,9.86400032043457,-0.4399999976158142,-0.5740000009536743
1702338686771526400,74.4865263671875,9.86400032043457,-0.4399999976158142,-0.5740000009536743
1702338686870054000,74.58505395507812,9.86400032043457,-0.4399999976158142,-0.5740000009536743
1702338686971467300,74.68646728515625,9.86400032043457,-0.4399999976158142,-0.5740000009536743
1702338687071526100,74.78652612304687,9.86400032043457,-0.4399999976158142,-0.5740000009536743
1702338687171639800,74.88663989257813,9.86400032043457,-0.4399999976158142,-0.5740000009536743
1702338687271527200,74.98652709960938,9.86400032043457,-0.4399999976158142,-0.5740000009536743
1702338687370060500,75.085060546875,9.940999984741211,-0.3630000054836273,-0.5740000009536743
1702338687470045200,75.18504516601563,9.86400032043457,-0.4399999976158142,-0.5740000009536743
1702338687570087200,75.28508715820313,9.86400032043457,-0.4399999976158142,-0.5740000009536743
1702338687671636700,75.38663671875,9.86400032043457,-0.4399999976158142,-0.5740000009536743
1702338687771535000,75.48653515625,9.86400032043457,-0.4399999976158142,-0.5740000009536743
1702338687870059000,75.58505908203125,9.86400032043457,-0.3630000054836273,-0.5740000009536743
1702338687970059800,75.68505981445313,9.86400032043457,-0.4399999976158142,-0.5740000009536743
1702338688071527200,75.78652709960937,9.86400032043457,-0.4399999976158142,-0.5740000009536743
1702338688170059000,75.88505908203125,9.86400032043457,-0.3630000054836273,-0.5740000009536743
1702338688270057000,75.98505688476563,9.86400032043457,-0.4399999976158142,-0.5740000009536743
1702338688370066700,76.08506665039063,9.86400032043457,-0.4399999976158142,-0.5740000009536743
1702338688470050800,76.18505078125,9.940999984741211,-0.4399999976158142,-0.5740000009536743
1702338688571558400,76.28655834960938,9.86400032043457,-0.4399999976158142,-0.5740000009536743
1702338688671647200,76.38664721679687,9.86400032043457,-0.4399999976158142,-0.5740000009536743
1702338688771523000,76.48652319335937,9.86400032043457,-0.4399999976158142,-0.5740000009536743
1702338688870057000,76.58505688476562,9.86400032043457,-0.4399999976158142,-0.5740000009536743
1702338688971577900,76.68657788085937,9.86400032043457,-0.4399999976158142,-0.5740000009536743
1702338689070059000,76.78505908203125,9.86400032043457,-0.4399999976158142,-0.5740000009536743
1702338689171640800,76.88664086914062,9.86400032043457,-0.4399999976158142,-0.5740000009536743
1702338689271524900,76.98652490234375,9.86400032043457,-0.4399999976158142,-0.5740000009536743
1702338689370078700,77.08507861328125,9.940999984741211,-0.4399999976158142,-0.5740000009536743
1702338689470086400,77.18508642578125,9.86400032043457,-0.4399999976158142,-0.5740000009536743
1702338689571534300,77.28653442382813,9.86400032043457,-0.4399999976158142,-0.5740000009536743
1702338689671637800,77.3866376953125,9.86400032043457,-0.4399999976158142,-0.5740000009536743
1702338689770103600,77.485103515625,9.86400032043457,-0.4399999976158142,-0.5740000009536743
1702338689871523000,77.58652319335937,9.86400032043457,-0.4399999976158142,-0.5740000009536743
1702338689971523000,77.68652319335938,9.940999984741211,-0.4399999976158142,-0.5740000009536743
1702338690071527000,77.78652685546875,9.86400032043457,-0.4399999976158142,-0.5740000009536743
1702338690171522600,77.8865224609375,9.86400032043457,-0.4399999976158142,-0.5740000009536743
1702338690271525600,77.98652563476563,9.86400032043457,-0.3630000054836273,-0.5740000009536743
1702338690370059000,78.08505908203125,9.86400032043457,-0.4399999976158142,-0.5740000009536743
1702338690471524900,78.18652490234375,9.86400032043457,-0.4399999976158142,-0.5740000009536743
1702338690570059500,78.2850595703125,9.86400032043457,-0.4399999976158142,-0.6510000228881836
1702338690671635200,78.38663525390625,9.86400032043457,-0.4399999976158142,-0.5740000009536743
1702338690771524600,78.48652465820312,9.86400032043457,-0.3630000054836273,-0.5740000009536743
1702338690871645700,78.58664575195313,9.940999984741211,-0.4399999976158142,-0.5740000009536743
1702338690971575300,78.6865751953125,9.940999984741211,-0.4399999976158142,-0.5740000009536743
1702338691070069000,78.78506909179687,9.86400032043457,-0.3630000054836273,-0.5740000009536743
1702338691170061600,78.8850615234375,9.86400032043457,-0.4399999976158142,-0.5740000009536743
1702338691270061000,78.98506103515625,9.86400032043457,-0.4399999976158142,-0.5740000009536743
1702338691370073300,79.0850732421875,9.86400032043457,-0.4399999976158142,-0.5740000009536743
1702338691470058200,79.18505834960938,9.940999984741211,-0.3630000054836273,-0.5740000009536743
1702338691571476500,79.2864765625,9.86400032043457,-0.4399999976158142,-0.5740000009536743
1702338691671478800,79.38647875976562,9.86400032043457,-0.4399999976158142,-0.5740000009536743
1702338691771547100,79.48654711914062,9.940999984741211,-0.4399999976158142,-0.5740000009536743
1702338691871463700,79.58646362304688,9.86400032043457,-0.4399999976158142,-0.5740000009536743
1702338691971514000,79.68651416015625,9.940999984741211,-0.4399999976158142,-0.5740000009536743
1702338692071466500,79.78646655273438,9.86400032043457,-0.4399999976158142,-0.5740000009536743
1702338692171574500,79.88657446289062,9.86400032043457,-0.4399999976158142,-0.5740000009536743
1702338692271464000,79.9864638671875,9.86400032043457,-0.3630000054836273,-0.5740000009536743
1702338692370090000,80.08509008789062,9.86400032043457,-0.4399999976158142,-0.5740000009536743
1702338692470060500,80.185060546875,9.86400032043457,-0.4399999976158142,-0.5740000009536743
1702338692570062800,80.28506274414063,9.86400032043457,-0.4399999976158142,-0.5740000009536743
1702338692671640800,80.38664086914062,9.86400032043457,-0.3630000054836273,-0.5740000009536743
1702338692771525600,80.48652563476563,9.86400032043457,-0.4399999976158142,-0.5740000009536743
1702338692870067700,80.58506762695312,9.86400032043457,-0.4399999976158142,-0.5740000009536743
1702338692970063600,80.68506372070313,9.940999984741211,-0.4399999976158142,-0.5740000009536743
1702338693071528400,80.78652856445312,9.86400032043457,-0.4399999976158142,-0.5740000009536743
1702338693171522600,80.8865224609375,9.86400032043457,-0.4399999976158142,-0.5740000009536743
1702338693271519500,80.98651953125,9.86400032043457,-0.4399999976158142,-0.5740000009536743
1702338693370582800,81.08558276367188,9.86400032043457,-0.4399999976158142,-0.5740000009536743
1702338693471465200,81.18646533203125,9.86400032043457,-0.4399999976158142,-0.5740000009536743
1702338693571521800,81.28652172851562,9.86400032043457,-0.4399999976158142,-0.5740000009536743
1702338693671637500,81.38663745117188,9.86400032043457,-0.4399999976158142,-0.5740000009536743
1702338693771502600,81.48650268554688,9.86400032043457,-0.4399999976158142,-0.5740000009536743
1702338693871522000,81.58652197265624,9.86400032043457,-0.4399999976158142,-0.5740000009536743
1702338693971470800,81.68647094726562,9.940999984741211,-0.4399999976158142,-0.5740000009536743
1702338694071542500,81.78654248046875,9.86400032043457,-0.4399999976158142,-0.6510000228881836
1702338694171526000,81.88652587890626,9.86400032043457,-0.4399999976158142,-0.5740000009536743
1702338694271635700,81.9866357421875,9.86400032043457,-0.3630000054836273,-0.5740000009536743
1702338694370087200,82.08508715820312,9.86400032043457,-0.4399999976158142,-0.5740000009536743
1702338694470049800,82.1850498046875,9.86400032043457,-0.4399999976158142,-0.5740000009536743
1702338694571540700,82.28654077148437,9.86400032043457,-0.4399999976158142,-0.5740000009536743
1702338694671524600,82.38652465820313,9.86400032043457,-0.4399999976158142,-0.5740000009536743
1702338694771647700,82.48664770507813,9.86400032043457,-0.4399999976158142,-0.5740000009536743
1702338694870060500,82.585060546875,9.86400032043457,-0.4399999976158142,-0.5740000009536743
1702338694970057700,82.6850576171875,9.86400032043457,-0.3630000054836273,-0.5740000009536743
1702338695071524000,82.78652416992188,9.86400032043457,-0.4399999976158142,-0.6510000228881836
1702338695171466500,82.88646655273438,9.86400032043457,-0.3630000054836273,-0.5740000009536743
1702338695271533600,82.98653344726563,9.86400032043457,-0.4399999976158142,-0.5740000009536743
1702338695370071300,83.0850712890625,9.86400032043457,-0.4399999976158142,-0.6510000228881836
1702338695471525400,83.186525390625,9.86400032043457,-0.4399999976158142,-0.5740000009536743
1702338695571638000,83.28663793945313,9.86400032043457,-0.4399999976158142,-0.5740000009536743
1702338695671533800,83.38653393554688,9.86400032043457,-0.3630000054836273,-0.5740000009536743
1702338695771523600,83.48652368164062,9.86400032043457,-0.4399999976158142,-0.5740000009536743
1702338695871524900,83.58652490234375,9.940999984741211,-0.4399999976158142,-0.5740000009536743
1702338695971570200,83.68657006835937,9.86400032043457,-0.4399999976158142,-0.5740000009536743
1702338696070068700,83.78506884765625,9.86400032043457,-0.3630000054836273,-0.6510000228881836
1702338696170421800,83.885421875,9.86400032043457,-0.4399999976158142,-0.5740000009536743
1702338696270082300,83.98508227539062,9.86400032043457,-0.4399999976158142,-0.5740000009536743
1702338696370060800,84.08506079101562,9.86400032043457,-0.4399999976158142,-0.5740000009536743
1702338696471524400,84.1865244140625,9.86400032043457,-0.4399999976158142,-0.5740000009536743
1702338696571532300,84.2865322265625,9.86400032043457,-0.4399999976158142,-0.5740000009536743
1702338696671523800,84.38652392578125,9.86400032043457,-0.4399999976158142,-0.5740000009536743
1702338696771522600,84.4865224609375,9.86400032043457,-0.4399999976158142,-0.5740000009536743
1702338696870066200,84.58506616210937,9.86400032043457,-0.4399999976158142,-0.5740000009536743
1702338696970277000,84.68527709960938,9.86400032043457,-0.3630000054836273,-0.5740000009536743
1702338697071915800,84.78691577148437,9.86400032043457,-0.4399999976158142,-0.5740000009536743
1702338697171524600,84.88652465820313,9.940999984741211,-0.4399999976158142,-0.5740000009536743
1702338697270064400,84.985064453125,9.86400032043457,-0.3630000054836273,-0.5740000009536743
1702338697370067700,85.08506762695312,9.86400032043457,-0.4399999976158142,-0.5740000009536743
1702338697470052400,85.18505224609375,9.86400032043457,-0.4399999976158142,-0.5740000009536743
1702338697570704600,85.28570458984375,9.86400032043457,-0.4399999976158142,-0.5740000009536743
1702338697671572000,85.38657202148437,9.86400032043457,-0.4399999976158142,-0.5740000009536743
1702338697770652000,85.48565185546875,9.86400032043457,-0.4399999976158142,-0.5740000009536743
1702338697870049500,85.58504956054688,9.86400032043457,-0.3630000054836273,-0.5740000009536743
1702338697970059500,85.6850595703125,9.86400032043457,-0.4399999976158142,-0.5740000009536743
1702338698071642000,85.78664208984375,8.024999618530273,-0.3630000054836273,-0.5740000009536743
1702338698170062000,85.88506201171874,9.940999984741211,-0.4399999976158142,-0.5740000009536743
1702338698270894300,85.98589428710937,9.86400032043457,-0.4399999976158142,-0.5740000009536743
1702338698370067700,86.08506762695312,9.711000442504883,-0.4399999976158142,-0.5740000009536743
1702338698470063900,86.18506396484375,9.86400032043457,-0.4399999976158142,-0.5740000009536743
1702338698571524900,86.28652490234376,9.86400032043457,-0.4399999976158142,-0.5740000009536743
1702338698671526700,86.38652661132812,9.86400032043457,-0.4399999976158142,-0.5740000009536743
1702338698771530500,86.48653051757813,9.86400032043457,-0.4399999976158142,-0.5740000009536743
1702338698870057000,86.58505688476562,9.940999984741211,-0.4399999976158142,-0.5740000009536743
1702338698970065200,86.68506518554688,9.86400032043457,-0.4399999976158142,-0.6510000228881836
1702338699071526700,86.78652661132813,9.86400032043457,-0.4399999976158142,-0.6510000228881836
1702338699171537000,86.88653686523438,9.86400032043457,-0.4399999976158142,-0.5740000009536743
1702338699271523600,86.98652368164062,9.86400032043457,-0.3630000054836273,-0.6510000228881836
1702338699370081800,87.08508178710937,9.86400032043457,-0.4399999976158142,-0.5740000009536743
1702338699470057000,87.18505688476563,9.86400032043457,-0.4399999976158142,-0.5740000009536743
1702338699570059000,87.28505908203125,9.86400032043457,-0.4399999976158142,-0.6510000228881836
1702338699671532500,87.38653247070313,9.86400032043457,-0.4399999976158142,-0.5740000009536743
1702338699770384400,87.48538427734375,9.940999984741211,-0.3630000054836273,-0.6510000228881836
1702338699871527000,87.58652685546875,9.86400032043457,-0.4399999976158142,-0.5740000009536743
1702338699971585300,87.68658520507813,9.86400032043457,-0.4399999976158142,-0.5740000009536743
1702338700071645200,87.78664526367187,9.86400032043457,-0.4399999976158142,-0.5740000009536743
1702338700170149600,87.88514965820312,9.86400032043457,-0.4399999976158142,-0.5740000009536743
1702338700271528200,87.98652807617188,9.86400032043457,-0.4399999976158142,-0.5740000009536743
1702338700370061600,88.0850615234375,9.86400032043457,-0.4399999976158142,-0.5740000009536743
1702338700470437600,88.18543774414063,9.86400032043457,-0.4399999976158142,-0.6510000228881836
1702338700571527200,88.28652709960937,9.86400032043457,-0.4399999976158142,-0.6510000228881836
1702338700671639800,88.38663989257813,9.86400032043457,-0.4399999976158142,-0.5740000009536743
1702338700771526100,88.48652612304687,9.86400032043457,-0.3630000054836273,-0.5740000009536743
1702338700871636500,88.58663647460938,9.86400032043457,-0.4399999976158142,-0.5740000009536743
1702338700970055400,88.68505541992188,9.86400032043457,-0.4399999976158142,-0.6510000228881836
1702338701075203600,88.79020361328125,9.86400032043457,-0.4399999976158142,-0.5740000009536743
1702338701270056400,88.98505639648438,9.86400032043457,-0.4399999976158142,-0.6510000228881836
1702338701370059000,89.08505908203125,9.86400032043457,-0.4399999976158142,-0.6510000228881836
1702338701470058800,89.18505883789062,9.86400032043457,-0.4399999976158142,-0.6510000228881836
1702338701571637000,89.28663696289063,9.86400032043457,-0.4399999976158142,-0.5740000009536743
1702338701671633400,89.38663330078126,9.86400032043457,-0.4399999976158142,-0.5740000009536743
1702338701771635200,89.48663525390624,9.86400032043457,-0.4399999976158142,-0.5740000009536743
1702338701871527700,89.58652758789063,9.940999984741211,-0.3630000054836273,-0.5740000009536743
1702338701971574800,89.68657470703126,9.86400032043457,-0.3630000054836273,-0.5740000009536743
1702338702071522800,89.78652270507813,9.86400032043457,-0.4399999976158142,-0.5740000009536743
1702338702171638000,89.88663793945312,9.86400032043457,-0.4399999976158142,-0.6510000228881836
1702338702271529700,89.98652978515625,9.86400032043457,-0.4399999976158142,-0.6510000228881836
1702338702370068700,90.08506884765625,9.86400032043457,-0.4399999976158142,-0.6510000228881836
1702338702471525000,90.18652514648437,9.86400032043457,-0.4399999976158142,-0.5740000009536743
1702338702571526000,90.28652587890625,9.86400032043457,-0.4399999976158142,-0.5740000009536743
1702338702670881300,90.38588134765625,9.86400032043457,-0.4399999976158142,-0.5740000009536743
1702338702771525600,90.48652563476563,9.86400032043457,-0.4399999976158142,-0.5740000009536743
1702338702870065700,90.58506567382813,9.86400032043457,-0.4399999976158142,-0.5740000009536743
1702338702970060000,90.68506005859375,9.86400032043457,-0.4399999976158142,-0.6510000228881836
1702338703071524600,90.78652465820312,9.86400032043457,-0.4399999976158142,-0.5740000009536743
1702338703171463400,90.88646337890626,9.940999984741211,-0.4399999976158142,-0.6510000228881836
1702338703271602200,90.98660229492188,9.86400032043457,-0.3630000054836273,-0.5740000009536743
1702338703370078500,91.08507836914063,9.86400032043457,-0.4399999976158142,-0.5740000009536743
1702338703470059300,91.18505932617188,9.86400032043457,-0.4399999976158142,-0.6510000228881836
1702338703570062300,91.28506225585937,9.940999984741211,-0.4399999976158142,-0.6510000228881836
1702338703670061300,91.38506127929688,9.86400032043457,-0.4399999976158142,-0.5740000009536743
1702338703770102800,91.48510278320313,9.86400032043457,-0.4399999976158142,-0.5740000009536743
1702338703870057700,91.5850576171875,9.86400032043457,-0.4399999976158142,-0.5740000009536743
1702338703971524000,91.68652416992188,9.940999984741211,-0.3630000054836273,-0.5740000009536743
1702338704070105300,91.78510522460938,9.86400032043457,-0.4399999976158142,-0.5740000009536743
1702338704171525400,91.886525390625,9.86400032043457,-0.4399999976158142,-0.6510000228881836
1702338704271523300,91.9865234375,9.86400032043457,-0.4399999976158142,-0.5740000009536743
1702338704370092500,92.08509252929687,9.86400032043457,-0.4399999976158142,-0.6510000228881836
1702338704470050000,92.18505004882813,9.86400032043457,-0.4399999976158142,-0.5740000009536743
1702338704571483600,92.28648364257812,9.86400032043457,-0.4399999976158142,-0.5740000009536743
1702338704671525400,92.386525390625,9.86400032043457,-0.4399999976158142,-0.5740000009536743
1702338704771637800,92.4866376953125,9.86400032043457,-0.4399999976158142,-0.5740000009536743
1702338704870391300,92.58539135742187,9.86400032043457,-0.4399999976158142,-0.6510000228881836
1702338704970081800,92.68508178710937,9.86400032043457,-0.4399999976158142,-0.5740000009536743
1702338705070093600,92.78509350585938,9.86400032043457,-0.4399999976158142,-0.6510000228881836
1702338705170083800,92.88508374023438,9.86400032043457,-0.4399999976158142,-0.5740000009536743
1702338705270101500,92.9851015625,9.86400032043457,-0.4399999976158142,-0.5740000009536743
1702338705370059000,93.08505908203125,9.86400032043457,-0.3630000054836273,-0.5740000009536743
1702338705470065400,93.1850654296875,9.86400032043457,-0.4399999976158142,-0.6510000228881836
1702338705570066700,93.28506665039062,9.86400032043457,-0.4399999976158142,-0.5740000009536743
1702338705670050600,93.38505053710938,9.940999984741211,-0.4399999976158142,-0.6510000228881836
1702338705771530800,93.48653076171875,9.86400032043457,-0.4399999976158142,-0.6510000228881836
1702338705871524000,93.58652416992187,9.86400032043457,-0.4399999976158142,-0.5740000009536743
1702338705970058000,93.68505810546876,9.86400032043457,-0.4399999976158142,-0.5740000009536743
1702338706071528200,93.78652807617188,9.940999984741211,-0.4399999976158142,-0.5740000009536743
1702338706170958600,93.88595849609375,9.86400032043457,-0.4399999976158142,-0.6510000228881836
1702338706270828500,93.98582861328126,9.86400032043457,-0.4399999976158142,-0.5740000009536743
1702338706370062300,94.08506225585937,9.86400032043457,-0.4399999976158142,-0.5740000009536743
1702338706470064600,94.18506469726563,9.86400032043457,-0.4399999976158142,-0.5740000009536743
1702338706571527200,94.28652709960937,9.86400032043457,-0.3630000054836273,-0.5740000009536743
1702338706671532800,94.38653271484375,9.86400032043457,-0.4399999976158142,-0.5740000009536743
1702338706771522600,94.4865224609375,9.86400032043457,-0.3630000054836273,-0.6510000228881836
1702338706871523600,94.58652368164063,9.86400032043457,-0.4399999976158142,-0.5740000009536743
1702338706971523300,94.6865234375,9.86400032043457,-0.4399999976158142,-0.5740000009536743
1702338707071533300,94.786533203125,9.86400032043457,-0.4399999976158142,-0.5740000009536743
1702338707171464000,94.8864638671875,9.86400032043457,-0.4399999976158142,-0.5740000009536743
1702338707271523000,94.98652319335937,9.86400032043457,-0.4399999976158142,-0.5740000009536743
1702338707370072000,95.08507202148438,9.86400032043457,-0.3630000054836273,-0.5740000009536743
1702338707470056200,95.18505615234375,9.86400032043457,-0.4399999976158142,-0.5740000009536743
1702338707570117600,95.28511767578125,9.86400032043457,-0.4399999976158142,-0.5740000009536743
1702338707671757300,95.38675732421875,9.86400032043457,-0.4399999976158142,-0.5740000009536743
1702338707771522600,95.4865224609375,9.86400032043457,-0.4399999976158142,-0.5740000009536743
1702338707870190000,95.58519018554688,9.86400032043457,-0.4399999976158142,-0.5740000009536743
1702338707970055200,95.68505517578124,9.86400032043457,-0.4399999976158142,-0.5740000009536743
1702338708070057500,95.78505737304687,9.940999984741211,-0.4399999976158142,-0.6510000228881836
1702338708171523300,95.8865234375,9.86400032043457,-0.4399999976158142,-0.5740000009536743
1702338708270062300,95.98506225585938,9.86400032043457,-0.3630000054836273,-0.5740000009536743
1702338708370767000,96.08576708984376,9.86400032043457,-0.4399999976158142,-0.5740000009536743
1702338708470053600,96.1850537109375,9.86400032043457,-0.4399999976158142,-0.6510000228881836
1702338708570337300,96.28533715820312,9.86400032043457,-0.4399999976158142,-0.5740000009536743
1702338708671566800,96.38656689453126,9.86400032043457,-0.4399999976158142,-0.5740000009536743
1702338708771651000,96.48665112304687,9.86400032043457,-0.4399999976158142,-0.6510000228881836
1702338708871527400,96.58652734375,9.86400032043457,-0.3630000054836273,-0.6510000228881836
1702338708971475500,96.68647534179688,9.940999984741211,-0.4399999976158142,-0.5740000009536743
1702338709071638800,96.786638671875,9.86400032043457,-0.4399999976158142,-0.5740000009536743
1702338709171520000,96.88652001953125,9.86400032043457,-0.4399999976158142,-0.6510000228881836
1702338709271681800,96.98668188476563,9.86400032043457,-0.3630000054836273,-0.6510000228881836
1702338709370269400,97.08526953125,9.86400032043457,-0.4399999976158142,-0.6510000228881836
1702338709470050800,97.18505078125,9.86400032043457,-0.4399999976158142,-0.5740000009536743
1702338709571639800,97.28663989257812,9.86400032043457,-0.4399999976158142,-0.5740000009536743
1702338709671645200,97.38664526367188,9.86400032043457,-0.4399999976158142,-0.5740000009536743
1702338709771643000,97.48664282226562,9.86400032043457,-0.4399999976158142,-0.5740000009536743
1702338709871527200,97.58652709960937,9.86400032043457,-0.4399999976158142,-0.5740000009536743
1702338709971571700,97.68657177734374,9.86400032043457,-0.4399999976158142,-0.6510000228881836
1702338710071523300,97.7865234375,9.86400032043457,-0.4399999976158142,-0.5740000009536743
1702338710171533600,97.88653344726562,9.86400032043457,-0.4399999976158142,-0.6510000228881836
1702338710271636000,97.98663598632812,9.86400032043457,-0.4399999976158142,-0.5740000009536743
1702338710370062300,98.08506225585937,9.86400032043457,-0.4399999976158142,-0.5740000009536743
1702338710470057500,98.18505737304687,9.86400032043457,-0.4399999976158142,-0.5740000009536743
1702338710571533600,98.28653344726563,9.86400032043457,-0.4399999976158142,-0.5740000009536743
1702338710671526700,98.38652661132812,9.940999984741211,-0.4399999976158142,-0.5740000009536743
1702338710771637800,98.4866376953125,9.86400032043457,-0.4399999976158142,-0.5740000009536743
1702338710871523600,98.58652368164063,9.86400032043457,-0.3630000054836273,-0.5740000009536743
1702338710971471600,98.6864716796875,9.86400032043457,-0.4399999976158142,-0.5740000009536743
1702338711071643400,98.78664331054688,9.86400032043457,-0.4399999976158142,-0.5740000009536743
1702338711170071000,98.88507104492187,9.86400032043457,-0.4399999976158142,-0.5740000009536743
1702338711270062000,98.98506201171875,9.86400032043457,-0.4399999976158142,-0.5740000009536743
1702338711370089200,99.08508911132813,9.940999984741211,-0.4399999976158142,-0.5740000009536743
1702338711477025800,99.19202587890625,9.86400032043457,-0.4399999976158142,-0.5740000009536743
1702338711671639000,99.38663916015625,9.86400032043457,-0.4399999976158142,-0.6510000228881836
1702338711771636500,99.48663647460937,9.86400032043457,-0.4399999976158142,-0.6510000228881836
1702338711871532000,99.58653198242187,9.86400032043457,-0.4399999976158142,-0.5740000009536743
1702338711971572700,99.68657275390625,9.86400032043457,-0.4399999976158142,-0.5740000009536743
1702338712071577300,99.78657739257812,9.86400032043457,-0.4399999976158142,-0.5740000009536743
1702338712171526400,99.8865263671875,9.86400032043457,-0.4399999976158142,-0.5740000009536743
1702338712271552000,99.98655200195313,9.86400032043457,-0.4399999976158142,-0.5740000009536743
1702338712370069500,100.08506958007813,9.86400032043457,-0.4399999976158142,-0.6510000228881836
1702338712470049000,100.18504907226563,9.86400032043457,-0.4399999976158142,-0.5740000009536743
1702338712571522600,100.2865224609375,9.86400032043457,-0.4399999976158142,-0.5740000009536743
1702338712671640800,100.38664086914062,9.86400032043457,-0.4399999976158142,-0.5740000009536743
1702338712771532500,100.48653247070312,9.86400032043457,-0.4399999976158142,-0.6510000228881836
1702338712871643000,100.58664282226563,9.86400032043457,-0.4399999976158142,-0.5740000009536743
1702338712970080300,100.68508032226562,9.86400032043457,-0.4399999976158142,-0.6510000228881836
1702338713070063600,100.78506372070312,9.86400032043457,-0.4399999976158142,-0.5740000009536743
1702338713171649300,100.88664916992188,9.86400032043457,-0.4399999976158142,-0.5740000009536743
1702338713271729000,100.98672900390625,9.940999984741211,-0.4399999976158142,-0.5740000009536743
1702338713370068200,101.08506811523438,9.86400032043457,-0.4399999976158142,-0.5740000009536743
1702338713470052000,101.18505200195312,9.86400032043457,-0.4399999976158142,-0.6510000228881836
1702338713571650600,101.28665063476562,9.86400032043457,-0.3630000054836273,-0.5740000009536743
1702338713671645000,101.38664501953124,9.86400032043457,-0.4399999976158142,-0.5740000009536743
1702338713771637500,101.48663745117187,9.86400032043457,-0.4399999976158142,-0.5740000009536743
1702338713870058500,101.58505859375,9.86400032043457,-0.3630000054836273,-0.6510000228881836
1702338713970060000,101.68506005859375,9.86400032043457,-0.3630000054836273,-0.5740000009536743
1702338714071643600,101.7866435546875,9.86400032043457,-0.4399999976158142,-0.6510000228881836
1702338714171635200,101.88663525390625,9.86400032043457,-0.3630000054836273,-0.5740000009536743
1702338714271462700,101.98646264648437,9.86400032043457,-0.4399999976158142,-0.5740000009536743
1702338714370084900,102.0850849609375,9.86400032043457,-0.4399999976158142,-0.5740000009536743
1702338714470058000,102.18505810546876,9.86400032043457,-0.4399999976158142,-0.6510000228881836
1702338714571638300,102.28663818359375,9.940999984741211,-0.4399999976158142,-0.5740000009536743
1702338714671524900,102.38652490234375,9.86400032043457,-0.4399999976158142,-0.5740000009536743
1702338714771524900,102.48652490234375,9.86400032043457,-0.4399999976158142,-0.5740000009536743
1702338714871527200,102.58652709960937,9.86400032043457,-0.4399999976158142,-0.5740000009536743
1702338714971570200,102.68657006835937,9.86400032043457,-0.4399999976158142,-0.5740000009536743
1702338715071524000,102.78652416992188,9.86400032043457,-0.4399999976158142,-0.5740000009536743
1702338715171636700,102.88663671875,9.86400032043457,-0.4399999976158142,-0.6510000228881836
1702338715271522800,102.98652270507813,9.86400032043457,-0.3630000054836273,-0.5740000009536743
1702338715370305000,103.08530493164062,9.86400032043457,-0.4399999976158142,-0.5740000009536743
1702338715470072600,103.18507250976562,9.86400032043457,-0.4399999976158142,-0.5740000009536743
1702338715571526700,103.28652661132813,9.940999984741211,-0.4399999976158142,-0.6510000228881836
1702338715671527700,103.38652758789063,9.940999984741211,-0.4399999976158142,-0.5740000009536743
1702338715771537000,103.48653686523437,9.86400032043457,-0.4399999976158142,-0.5740000009536743
1702338715871530000,103.58653002929688,9.940999984741211,-0.4399999976158142,-0.6510000228881836
1702338715971512600,103.6865126953125,9.86400032043457,-0.4399999976158142,-0.6510000228881836
1702338716071527200,103.78652709960937,9.86400032043457,-0.4399999976158142,-0.5740000009536743
1702338716170066700,103.88506665039063,9.86400032043457,-0.4399999976158142,-0.6510000228881836
1702338716270058000,103.98505810546875,9.940999984741211,-0.4399999976158142,-0.5740000009536743
1702338716370073600,104.08507348632813,9.86400032043457,-0.4399999976158142,-0.5740000009536743
1702338716471517400,104.18651733398437,9.86400032043457,-0.4399999976158142,-0.6510000228881836
1702338716571538400,104.28653833007813,9.86400032043457,-0.4399999976158142,-0.5740000009536743
1702338716671530500,104.38653051757812,9.86400032043457,-0.4399999976158142,-0.5740000009536743
1702338716771523800,104.48652392578126,9.86400032043457,-0.4399999976158142,-0.6510000228881836
1702338716871519700,104.58651977539063,9.86400032043457,-0.3630000054836273,-0.5740000009536743
1702338716971520000,104.68652001953124,9.86400032043457,-0.3630000054836273,-0.5740000009536743
1702338717070814200,104.78581420898438,9.940999984741211,-0.4399999976158142,-0.5740000009536743
1702338717174853400,104.88985327148437,9.86400032043457,-0.4399999976158142,-0.6510000228881836
1702338717270813000,104.98581298828125,9.86400032043457,-0.4399999976158142,-0.5740000009536743
1702338717370070300,105.0850703125,9.86400032043457,-0.4399999976158142,-0.5740000009536743
1702338717470049500,105.18504956054687,9.86400032043457,-0.4399999976158142,-0.5740000009536743
1702338717571540200,105.28654028320312,9.86400032043457,-0.4399999976158142,-0.6510000228881836
1702338717671524400,105.3865244140625,9.86400032043457,-0.4399999976158142,-0.5740000009536743
1702338717771523800,105.48652392578126,9.940999984741211,-0.4399999976158142,-0.5740000009536743
1702338717871521800,105.58652172851562,9.86400032043457,-0.4399999976158142,-0.5740000009536743
1702338717970067700,105.68506762695313,9.86400032043457,-0.4399999976158142,-0.5740000009536743
1702338718070047700,105.7850478515625,9.940999984741211,-0.3630000054836273,-0.5740000009536743
1702338718170079200,105.88507934570312,9.86400032043457,-0.4399999976158142,-0.5740000009536743
1702338718270058000,105.98505810546875,9.86400032043457,-0.4399999976158142,-0.5740000009536743
1702338718370069800,106.08506982421875,9.86400032043457,-0.4399999976158142,-0.5740000009536743
1702338718470074600,106.18507470703125,9.86400032043457,-0.4399999976158142,-0.5740000009536743
1702338718570058200,106.28505834960937,9.86400032043457,-0.4399999976158142,-0.5740000009536743
1702338718671522800,106.38652270507812,9.86400032043457,-0.4399999976158142,-0.5740000009536743
1702338718770063000,106.48506298828126,9.86400032043457,-0.4399999976158142,-0.5740000009536743
1702338718870220000,106.58521997070312,9.86400032043457,-0.4399999976158142,-0.6510000228881836
1702338718970299100,106.68529907226562,9.86400032043457,-0.4399999976158142,-0.5740000009536743
1702338719071681300,106.78668139648437,9.86400032043457,-0.4399999976158142,-0.5740000009536743
1702338719171526000,106.88652587890626,9.86400032043457,-0.4399999976158142,-0.5740000009536743
1702338719271527400,106.98652734375,9.86400032043457,-0.4399999976158142,-0.5740000009536743
1702338719370058500,107.08505859375,9.86400032043457,-0.4399999976158142,-0.5740000009536743
1702338719472090000,107.18709008789062,9.86400032043457,-0.4399999976158142,-0.6510000228881836
1702338719570447000,107.28544702148437,9.86400032043457,-0.4399999976158142,-0.5740000009536743
1702338719671528700,107.38652880859375,9.940999984741211,-0.4399999976158142,-0.5740000009536743
1702338719770745000,107.4857451171875,9.86400032043457,-0.4399999976158142,-0.5740000009536743
1702338719870103000,107.58510302734375,9.86400032043457,-0.4399999976158142,-0.5740000009536743
1702338719971579400,107.68657934570312,9.86400032043457,-0.4399999976158142,-0.5740000009536743
1702338720070078200,107.785078125,9.86400032043457,-0.4399999976158142,-0.5740000009536743
1702338720170078000,107.88507788085937,9.86400032043457,-0.4399999976158142,-0.6510000228881836
1702338720271526400,107.9865263671875,9.86400032043457,-0.4399999976158142,-0.5740000009536743
1702338720370069200,108.0850693359375,9.86400032043457,-0.4399999976158142,-0.5740000009536743
1702338720471525600,108.18652563476563,9.86400032043457,-0.3630000054836273,-0.6510000228881836
1702338720571586600,108.28658666992187,9.86400032043457,-0.4399999976158142,-0.5740000009536743
1702338720670062000,108.38506201171874,9.940999984741211,-0.4399999976158142,-0.5740000009536743
1702338720771526400,108.4865263671875,9.86400032043457,-0.4399999976158142,-0.6510000228881836
1702338720871524400,108.5865244140625,9.86400032043457,-0.4399999976158142,-0.5740000009536743
1702338720971572700,108.68657275390625,9.86400032043457,-0.4399999976158142,-0.5740000009536743
1702338721071646500,108.786646484375,9.86400032043457,-0.4399999976158142,-0.5740000009536743
1702338721170066200,108.88506616210938,9.940999984741211,-0.4399999976158142,-0.5740000009536743
1702338721270065200,108.98506518554687,9.940999984741211,-0.4399999976158142,-0.6510000228881836
1702338721370076000,109.08507592773438,9.86400032043457,-0.4399999976158142,-0.5740000009536743
1702338721470047700,109.1850478515625,9.86400032043457,-0.4399999976158142,-0.5740000009536743
1702338721570062600,109.2850625,9.86400032043457,-0.3630000054836273,-0.5740000009536743
1702338721671639800,109.38663989257813,9.86400032043457,-0.4399999976158142,-0.5740000009536743
1702338721770558700,109.48555883789062,9.940999984741211,-0.4399999976158142,-0.6510000228881836
1702338721871526100,109.58652612304688,9.86400032043457,-0.4399999976158142,-0.5740000009536743
1702338721971572200,109.686572265625,9.940999984741211,-0.4399999976158142,-0.5740000009536743
1702338722071638000,109.78663793945313,9.86400032043457,-0.3630000054836273,-0.5740000009536743
1702338722171524900,109.88652490234375,9.86400032043457,-0.4399999976158142,-0.5740000009536743
1702338722271639600,109.9866396484375,9.940999984741211,-0.3630000054836273,-0.5740000009536743
1702338722370067500,110.0850673828125,9.86400032043457,-0.4399999976158142,-0.5740000009536743
1702338722470066200,110.18506616210938,9.86400032043457,-0.4399999976158142,-0.5740000009536743
1702338722571524000,110.28652416992188,9.86400032043457,-0.4399999976158142,-0.5740000009536743
1702338722671652600,110.38665258789062,9.940999984741211,-0.4399999976158142,-0.5740000009536743
1702338722771686000,110.48668579101563,9.86400032043457,-0.4399999976158142,-0.5740000009536743
1702338722871642000,110.58664208984375,9.86400032043457,-0.4399999976158142,-0.5740000009536743
1702338722970973700,110.6859736328125,9.940999984741211,-0.4399999976158142,-0.5740000009536743
1702338723070059300,110.78505932617188,9.86400032043457,-0.4399999976158142,-0.5740000009536743
1702338723170071800,110.88507177734375,9.86400032043457,-0.4399999976158142,-0.6510000228881836
1702338723271654400,110.986654296875,9.940999984741211,-0.4399999976158142,-0.5740000009536743
1702338723370065700,111.08506567382813,9.940999984741211,-0.4399999976158142,-0.5740000009536743
1702338723470059000,111.18505908203124,9.86400032043457,-0.4399999976158142,-0.5740000009536743
1702338723571525600,111.28652563476562,9.86400032043457,-0.4399999976158142,-0.5740000009536743
1702338723671650600,111.38665063476563,9.86400032043457,-0.4399999976158142,-0.5740000009536743
1702338723771638300,111.48663818359375,9.86400032043457,-0.3630000054836273,-0.5740000009536743
1702338723871527000,111.58652685546875,9.86400032043457,-0.4399999976158142,-0.6510000228881836
1702338723970058800,111.68505883789062,9.86400032043457,-0.4399999976158142,-0.5740000009536743
1702338724070056700,111.785056640625,9.86400032043457,-0.4399999976158142,-0.5740000009536743
1702338724171639800,111.88663989257813,9.86400032043457,-0.3630000054836273,-0.5740000009536743
1702338724270059300,111.98505932617188,9.86400032043457,-0.3630000054836273,-0.5740000009536743
1702338724370064000,112.08506396484376,9.86400032043457,-0.4399999976158142,-0.5740000009536743
1702338724470063600,112.18506372070313,9.86400032043457,-0.4399999976158142,-0.5740000009536743
1702338724570057500,112.28505737304687,9.86400032043457,-0.4399999976158142,-0.5740000009536743
1702338724670064000,112.38506420898437,9.86400032043457,-0.4399999976158142,-0.6510000228881836
1702338724771523300,112.4865234375,9.86400032043457,-0.4399999976158142,-0.6510000228881836
1702338724871521300,112.58652124023438,9.86400032043457,-0.3630000054836273,-0.5740000009536743
1702338724971469600,112.68646948242187,9.86400032043457,-0.4399999976158142,-0.5740000009536743
1702338725071527400,112.78652734375,9.940999984741211,-0.3630000054836273,-0.5740000009536743
1702338725171667000,112.8866669921875,9.86400032043457,-0.4399999976158142,-0.5740000009536743
1702338725270103600,112.985103515625,9.86400032043457,-0.3630000054836273,-0.5740000009536743
1702338725370071000,113.08507104492188,9.940999984741211,-0.4399999976158142,-0.5740000009536743
1702338725470058800,113.18505883789062,9.940999984741211,-0.4399999976158142,-0.6510000228881836
1702338725570104300,113.28510424804688,9.86400032043457,-0.4399999976158142,-0.6510000228881836
1702338725670059800,113.38505981445313,9.86400032043457,-0.4399999976158142,-0.5740000009536743
1702338725770103300,113.48510327148438,9.86400032043457,-0.4399999976158142,-0.6510000228881836
1702338725871466200,113.58646630859376,9.86400032043457,-0.4399999976158142,-0.5740000009536743
1702338725971508700,113.6865087890625,9.86400032043457,-0.4399999976158142,-0.6510000228881836
1702338726071464700,113.78646459960937,9.86400032043457,-0.4399999976158142,-0.5740000009536743
1702338726171469800,113.8864697265625,9.86400032043457,-0.4399999976158142,-0.6510000228881836
1702338726270068500,113.985068359375,9.86400032043457,-0.3630000054836273,-0.5740000009536743
1702338726370055700,114.0850556640625,9.86400032043457,-0.4399999976158142,-0.6510000228881836
1702338726470058000,114.18505810546876,9.86400032043457,-0.4399999976158142,-0.5740000009536743
1702338726571523300,114.2865234375,9.86400032043457,-0.4399999976158142,-0.5740000009536743
1702338726671643100,114.38664306640625,9.86400032043457,-0.4399999976158142,-0.5740000009536743
1702338726771531500,114.48653149414062,9.86400032043457,-0.3630000054836273,-0.5740000009536743
1702338726871521300,114.58652124023438,9.86400032043457,-0.4399999976158142,-0.5740000009536743
1702338726970078200,114.685078125,9.86400032043457,-0.4399999976158142,-0.5740000009536743
1702338727071263500,114.78626342773437,9.940999984741211,-0.4399999976158142,-0.5740000009536743
1702338727171659500,114.88665942382812,9.86400032043457,-0.4399999976158142,-0.6510000228881836
1702338727271525600,114.98652563476563,9.86400032043457,-0.4399999976158142,-0.5740000009536743
1702338727370067700,115.08506762695312,9.86400032043457,-0.4399999976158142,-0.5740000009536743
1702338727470050000,115.18505004882813,9.86400032043457,-0.4399999976158142,-0.5740000009536743
1702338727571525000,115.28652514648438,9.86400032043457,-0.4399999976158142,-0.5740000009536743
1702338727671536600,115.38653662109375,9.86400032043457,-0.4399999976158142,-0.5740000009536743
1702338727771651600,115.48665161132813,9.86400032043457,-0.4399999976158142,-0.5740000009536743
1702338727870054700,115.5850546875,9.86400032043457,-0.4399999976158142,-0.5740000009536743
1702338727970085600,115.68508569335937,9.86400032043457,-0.4399999976158142,-0.5740000009536743
1702338728070060000,115.78506005859376,9.86400032043457,-0.3630000054836273,-0.5740000009536743
1702338728171523600,115.88652368164063,9.86400032043457,-0.3630000054836273,-0.5740000009536743
1702338728271524400,115.9865244140625,9.940999984741211,-0.4399999976158142,-0.5740000009536743
1702338728370079000,116.08507885742188,9.86400032043457,-0.3630000054836273,-0.5740000009536743
1702338728470056200,116.18505615234375,9.86400032043457,-0.3630000054836273,-0.6510000228881836
1702338728571528700,116.28652880859374,9.86400032043457,-0.4399999976158142,-0.5740000009536743
1702338728671498500,116.38649853515625,9.86400032043457,-0.4399999976158142,-0.5740000009536743
1702338728770104300,116.48510424804688,9.86400032043457,-0.4399999976158142,-0.5740000009536743
1702338728871523300,116.5865234375,9.86400032043457,-0.4399999976158142,-0.5740000009536743
1702338728970057000,116.68505688476563,9.86400032043457,-0.4399999976158142,-0.5740000009536743
1702338729070058800,116.78505883789063,9.86400032043457,-0.4399999976158142,-0.5740000009536743
1702338729171522800,116.88652270507812,9.86400032043457,-0.3630000054836273,-0.5740000009536743
1702338729270059500,116.9850595703125,9.940999984741211,-0.3630000054836273,-0.5740000009536743
1702338729370061000,117.08506103515624,9.86400032043457,-0.4399999976158142,-0.5740000009536743
1702338729470174500,117.18517456054687,9.86400032043457,-0.4399999976158142,-0.5740000009536743
1702338729571523800,117.28652392578125,9.86400032043457,-0.4399999976158142,-0.5740000009536743
1702338729671469800,117.3864697265625,9.86400032043457,-0.4399999976158142,-0.6510000228881836
1702338729770070000,117.48507006835938,9.86400032043457,-0.4399999976158142,-0.6510000228881836
1702338729871283700,117.58628369140625,9.86400032043457,-0.3630000054836273,-0.6510000228881836
1702338729970054000,117.68505395507813,9.86400032043457,-0.4399999976158142,-0.5740000009536743
1702338730070048000,117.78504809570312,9.86400032043457,-0.4399999976158142,-0.5740000009536743
1702338730170083300,117.88508325195312,9.940999984741211,-0.4399999976158142,-0.5740000009536743
1702338730270072600,117.98507250976563,9.86400032043457,-0.4399999976158142,-0.5740000009536743
1702338730370055700,118.0850556640625,9.86400032043457,-0.4399999976158142,-0.6510000228881836
1702338730470056400,118.18505639648437,9.86400032043457,-0.4399999976158142,-0.6510000228881836
1702338730570083300,118.28508325195313,9.86400032043457,-0.4399999976158142,-0.6510000228881836
1702338730671683300,118.38668334960937,9.86400032043457,-0.4399999976158142,-0.5740000009536743
1702338730771528200,118.48652807617188,9.86400032043457,-0.4399999976158142,-0.5740000009536743
1702338730870065000,118.58506494140624,9.86400032043457,-0.3630000054836273,-0.5740000009536743
1702338730970475500,118.6854755859375,9.86400032043457,-0.4399999976158142,-0.5740000009536743
1702338731070103000,118.78510302734375,9.86400032043457,-0.4399999976158142,-0.5740000009536743
1702338731171646500,118.886646484375,9.86400032043457,-0.3630000054836273,-0.5740000009536743
1702338731270243300,118.98524340820312,9.86400032043457,-0.4399999976158142,-0.5740000009536743
1702338731370057000,119.08505688476562,9.86400032043457,-0.4399999976158142,-0.5740000009536743
1702338731471654700,119.18665454101563,9.86400032043457,-0.4399999976158142,-0.6510000228881836
1702338731571533800,119.28653393554687,9.86400032043457,-0.4399999976158142,-0.5740000009536743
1702338731671643000,119.38664282226563,9.86400032043457,-0.3630000054836273,-0.6510000228881836
1702338731771639800,119.48663989257813,9.86400032043457,-0.4399999976158142,-0.5740000009536743
1702338731870615800,119.58561572265624,9.86400032043457,-0.4399999976158142,-0.5740000009536743
1702338731971577600,119.68657763671875,9.86400032043457,-0.3630000054836273,-0.5740000009536743
1702338732071645400,119.7866455078125,9.86400032043457,-0.4399999976158142,-0.6510000228881836
1702338732171528400,119.88652856445313,9.86400032043457,-0.4399999976158142,-0.5740000009536743
1702338732271527000,119.98652685546875,9.86400032043457,-0.4399999976158142,-0.5740000009536743
1702338732370082300,120.08508227539062,9.86400032043457,-0.4399999976158142,-0.5740000009536743
1702338732470050600,120.18505053710938,9.86400032043457,-0.4399999976158142,-0.5740000009536743
1702338732571640600,120.286640625,9.86400032043457,-0.4399999976158142,-0.6510000228881836
1702338732671525600,120.38652563476562,9.86400032043457,-0.3630000054836273,-0.6510000228881836
1702338732771530000,120.48653002929687,9.86400032043457,-0.4399999976158142,-0.5740000009536743
1702338732871551000,120.58655102539062,9.940999984741211,-0.4399999976158142,-0.5740000009536743
1702338732971585000,120.6865849609375,9.940999984741211,-0.4399999976158142,-0.6510000228881836
1702338733070439000,120.78543896484375,9.86400032043457,-0.4399999976158142,-0.5740000009536743
1702338733170055400,120.88505541992187,9.86400032043457,-0.4399999976158142,-0.6510000228881836
1702338733271637200,120.98663720703125,9.940999984741211,-0.3630000054836273,-0.6510000228881836
1702338733370062800,121.08506274414063,9.86400032043457,-0.3630000054836273,-0.5740000009536743
1702338733470176300,121.18517626953125,9.86400032043457,-0.4399999976158142,-0.5740000009536743
1702338733571475200,121.28647509765625,9.86400032043457,-0.4399999976158142,-0.5740000009536743
1702338733670058800,121.38505883789063,9.86400032043457,-0.4399999976158142,-0.5740000009536743
1702338733771579000,121.48657885742188,9.86400032043457,-0.4399999976158142,-0.6510000228881836
1702338733871466500,121.58646655273438,9.86400032043457,-0.4399999976158142,-0.5740000009536743
1702338733971461600,121.68646166992187,9.86400032043457,-0.3630000054836273,-0.5740000009536743
1702338734070059300,121.78505932617188,9.86400032043457,-0.4399999976158142,-0.5740000009536743
1702338734171464000,121.8864638671875,9.86400032043457,-0.4399999976158142,-0.5740000009536743
1702338734270063000,121.98506298828126,9.86400032043457,-0.4399999976158142,-0.5740000009536743
1702338734371376400,122.08637646484375,9.86400032043457,-0.4399999976158142,-0.5740000009536743
1702338734471624400,122.18662451171875,9.940999984741211,-0.4399999976158142,-0.6510000228881836
1702338734570058200,122.28505834960937,9.86400032043457,-0.4399999976158142,-0.5740000009536743
1702338734671466500,122.38646655273438,9.940999984741211,-0.4399999976158142,-0.5740000009536743
1702338734771582000,122.48658203125,9.86400032043457,-0.4399999976158142,-0.5740000009536743
1702338734871464700,122.58646459960937,9.86400032043457,-0.4399999976158142,-0.5740000009536743
1702338734970186800,122.68518676757813,9.86400032043457,-0.4399999976158142,-0.5740000009536743
1702338735071577600,122.78657763671875,9.86400032043457,-0.4399999976158142,-0.6510000228881836
1702338735170062300,122.88506225585938,9.86400032043457,-0.3630000054836273,-0.5740000009536743
1702338735270313700,122.98531372070312,9.86400032043457,-0.4399999976158142,-0.5740000009536743
1702338735371470600,123.086470703125,9.86400032043457,-0.3630000054836273,-0.6510000228881836
1702338735471464000,123.1864638671875,9.86400032043457,-0.4399999976158142,-0.6510000228881836
1702338735570065000,123.28506494140625,9.86400032043457,-0.4399999976158142,-0.6510000228881836
1702338735670347300,123.38534716796875,9.86400032043457,-0.4399999976158142,-0.6510000228881836
1702338735771486500,123.48648657226562,9.86400032043457,-0.4399999976158142,-0.5740000009536743
1702338735871463400,123.58646337890625,9.940999984741211,-0.4399999976158142,-0.5740000009536743
1702338735971464200,123.68646411132812,9.940999984741211,-0.4399999976158142,-0.5740000009536743
1702338736071465700,123.7864658203125,9.86400032043457,-0.4399999976158142,-0.5740000009536743
1702338736170064400,123.885064453125,9.86400032043457,-0.4399999976158142,-0.5740000009536743
1702338736270073000,123.98507299804687,9.940999984741211,-0.4399999976158142,-0.5740000009536743
1702338736370066700,124.08506665039063,9.86400032043457,-0.3630000054836273,-0.5740000009536743
1702338736470052000,124.18505200195312,9.86400032043457,-0.4399999976158142,-0.5740000009536743
1702338736571541000,124.286541015625,9.86400032043457,-0.4399999976158142,-0.5740000009536743
1702338736671526400,124.3865263671875,9.86400032043457,-0.4399999976158142,-0.5740000009536743
1702338736771526000,124.48652587890625,9.86400032043457,-0.4399999976158142,-0.5740000009536743
1702338736871531300,124.58653125,9.86400032043457,-0.4399999976158142,-0.5740000009536743
1702338736971481000,124.68648120117187,9.86400032043457,-0.4399999976158142,-0.5740000009536743
1702338737071527000,124.78652685546875,9.86400032043457,-0.4399999976158142,-0.5740000009536743
1702338737170424000,124.88542407226562,9.86400032043457,-0.4399999976158142,-0.5740000009536743
1702338737271465700,124.9864658203125,9.86400032043457,-0.4399999976158142,-0.5740000009536743
1702338737370093300,125.08509326171875,9.86400032043457,-0.4399999976158142,-0.5740000009536743
1702338737471635000,125.18663500976562,9.86400032043457,-0.4399999976158142,-0.5740000009536743
1702338737571526100,125.28652612304687,9.940999984741211,-0.4399999976158142,-0.6510000228881836
1702338737671650600,125.38665063476563,9.86400032043457,-0.4399999976158142,-0.5740000009536743
1702338737771527700,125.48652758789062,9.940999984741211,-0.4399999976158142,-0.6510000228881836
1702338737870072600,125.58507250976562,9.86400032043457,-0.4399999976158142,-0.5740000009536743
1702338737971470000,125.68646997070313,9.86400032043457,-0.4399999976158142,-0.5740000009536743
1702338738070060500,125.785060546875,9.86400032043457,-0.4399999976158142,-0.5740000009536743
1702338738170059800,125.88505981445313,9.86400032043457,-0.4399999976158142,-0.5740000009536743
1702338738270555000,125.98555493164062,9.86400032043457,-0.4399999976158142,-0.6510000228881836
1702338738371524600,126.08652465820313,9.86400032043457,-0.4399999976158142,-0.5740000009536743
1702338738471524900,126.18652490234375,9.86400032043457,-0.4399999976158142,-0.6510000228881836
1702338738571649000,126.28664892578125,9.86400032043457,-0.4399999976158142,-0.5740000009536743
1702338738671524900,126.38652490234375,9.86400032043457,-0.4399999976158142,-0.5740000009536743
1702338738771465200,126.48646533203124,9.86400032043457,-0.4399999976158142,-0.5740000009536743
1702338738871526700,126.58652661132813,9.86400032043457,-0.4399999976158142,-0.6510000228881836
