time,seconds_elapsed,z,y,x
1702338741619887000,0.08888720703125,-0.09769999980926514,-0.0013000000035390258,-0.003000000026077032
1702338741719149600,0.188149658203125,-0.3734999895095825,0.11869999766349792,0.004999999888241291
1702338741818413600,0.28741357421875,0.3021000027656555,-0.04230000078678131,-0.22039999067783356
1702338741917676000,0.386676025390625,0.08020000159740448,0.020899999886751175,-0.06909999996423721
1702338742016940000,0.48593994140625,-0.385699987411499,-0.02019999921321869,0.10899999737739563
1702338742116202800,0.58520263671875,-0.020099999383091927,0.0340999998152256,0.11289999634027481
1702338742215466800,0.684466796875,0.09129999577999115,0.054499998688697815,0.07719999551773071
1702338742314729200,0.783729248046875,0,-0.001999999862164259,0.17069999873638153
1702338742413993200,0.8829931640625,0.284199982881546,0.04039999842643738,-0.012999999336898327
1702338742513254100,0.982254150390625,0.27059999108314514,-0.07199999690055847,-0.24789999425411224
1702338742612518400,1.081518310546875,-1.1024999618530273,-0.023099999874830246,0.021699998527765274
1702338742711782400,1.180782470703125,0.715499997138977,0.054899998009204865,0.18940000236034393
1702338742811044900,1.280044921875,0.07759999483823776,0.05790000036358833,-0.1525000035762787
1702338742910308900,1.379308837890625,-0.12870000302791595,-0.01249999925494194,-0.24489998817443848
1702338743009571300,1.4785712890625,-0.9422999620437622,0.5116999745368958,-1.2594000101089478
1702338743108835600,1.577835693359375,-1.1626999378204346,-0.20479999482631683,1.4829999208450317
1702338743208096500,1.677096435546875,1.9544999599456787,-0.171999990940094,0.9911999702453613
1702338743307360500,1.776360595703125,-0.3709999918937683,0.27480000257492065,0.9041999578475952
1702338743406623000,1.875623046875,-0.1979999989271164,0.8805999755859375,-2.0658998489379883
1702338743505887000,1.974886962890625,-0.39479997754096985,0.0005999999702908099,-0.15399999916553497
1702338743605151000,2.07415087890625,1.3264999389648438,-0.17430000007152557,0.7950999736785889
1702338743704413700,2.17341357421875,-0.2777999937534332,0.07090000063180923,-0.5550999641418457
1702338743803676200,2.27267626953125,-0.871999979019165,0.13899999856948853,-1.0556999444961548
1702338743902940200,2.371940185546875,-0.5708000063896179,0.23749999701976776,-0.8025999665260315
1702338744002202600,2.47120263671875,0.8703999519348145,-0.12610000371932983,0.7981999516487122
1702338744101466600,2.570466552734375,-1.3837000131607056,0.7569999694824219,-1.466599941253662
1702338744200731000,2.66973095703125,0.06309999525547028,0.9261999726295471,-0.3743000030517578
1702338744299993300,2.768993408203125,-3.001699924468994,-1.2041999101638794,-0.7620999813079834
1702338744399257300,2.86825732421875,1.3579999208450317,0.14630000293254852,0.5217999815940857
1702338744498519800,2.967519775390625,-0.065700002014637,-0.10249999910593033,-0.5020999908447266
1702338744597783800,3.06678369140625,-0.39649999141693115,-0.1695999950170517,-0.47360000014305115
1702338744697046300,3.16604638671875,-3.205199956893921,-1.164199948310852,-2.2904999256134033
1702338744796310500,3.265310546875,6.6717000007629395,-1.154099941253662,0.3246999979019165
1702338744895573000,3.364572998046875,0.6902999877929688,-0.7483999729156494,-0.2549000084400177
1702338744994835500,3.46383544921875,-1.708899974822998,0.23009999096393585,-1.2197999954223633
1702338745094099500,3.563099365234375,2.580699920654297,-1.5055999755859375,1.607800006866455
1702338745193362000,3.66236181640625,-1.1901999711990356,-0.3806999921798706,-2.0077998638153076
1702338745292624600,3.761624755859375,4.020999908447266,0.202799990773201,1.7346999645233154
1702338745391888600,3.860888671875,-1.6065999269485474,0.014800000004470348,-0.9372999668121338
1702338745491151000,3.960151123046875,3.210599899291992,0.06650000065565109,-0.1200999990105629
1702338745590415000,4.0594150390625,-1.2085000276565552,-1.0649999380111694,-0.7253999710083008
1702338745689679000,4.15867919921875,1.2487999200820923,0.9400999546051025,-2.1749000549316406
1702338745788941800,4.25794189453125,-0.18449999392032623,0.12539999186992645,-3.3757998943328857
1702338745888204300,4.357204345703125,-2.3496999740600586,-1.6245999336242676,-0.8445000052452087
1702338745987468300,4.45646826171875,-2.894899845123291,-0.8944999575614929,1.705199956893921
1702338746086730800,4.555730712890625,-1.5321999788284302,-1.1232999563217163,2.8992998600006104
1702338746185994800,4.654994873046875,-0.984499990940094,-0.29659998416900635,-1.3940999507904053
1702338746285257200,4.75425732421875,-2.7667999267578125,-0.8531000018119812,0.8495999574661255
1702338746384520000,4.85352001953125,-0.5248000025749207,0.409199982881546,-1.9997999668121338
1702338746483784000,4.952783935546875,5.494800090789795,-1.8693000078201294,0.5027999877929688
1702338746583046400,5.05204638671875,0.2849999964237213,-0.14800000190734863,0.5828999876976013
1702338746682310400,5.151310302734375,-0.047599997371435165,0.6380000114440918,-1.8089998960494995
1702338746781572900,5.25057275390625,0.6477999687194824,-0.6900999546051025,0.09189999848604202
1702338746880837000,5.349837158203125,0.2847999930381775,0.7239999771118164,1.1928999423980713
1702338746980099600,5.449099609375,0.4429999887943268,-1.1460000276565552,0.5048999786376953
1702338747079362000,5.548362060546875,-0.17440000176429749,0.4545999765396118,-1.1858999729156494
1702338747178626000,5.6476259765625,0.10019999742507935,-1.1374999284744263,0.7103999853134155
1702338747277890000,5.74689013671875,1.0786999464035034,1.0640000104904175,-0.8230999708175659
1702338747377152800,5.84615283203125,-0.019099999219179153,-1.052299976348877,-0.09139999747276306
1702338747476415200,5.945415283203125,-0.1680999994277954,0.10109999775886536,0.4098999798297882
1702338747575679200,6.04467919921875,-1.063499927520752,-0.4983999729156494,1.0440000295639038
1702338747674941700,6.143941650390625,0.7573999762535095,1.6507999897003174,-0.33379998803138733
1702338747774205700,6.243205810546875,-0.17569999396800995,-0.4202999770641327,0.14869999885559082
1702338747873468200,6.34246826171875,0.24560000002384186,0.1589999943971634,0.36820000410079956
1702338747972732400,6.441732421875,0.2751999795436859,-0.05889999866485596,-0.27639999985694885
1702338748071995000,6.540994873046875,0.31439998745918274,0.3328999876976013,-0.4802999794483185
1702338748171257300,6.64025732421875,-0.2329999953508377,-0.147599995136261,0.3991999924182892
1702338748270521300,6.739521240234375,-0.13279999792575836,-0.1266999989748001,0.22109998762607574
1702338748369783800,6.83878369140625,0.029500000178813934,-1.3528000116348267,0.8394999504089355
1702338748469048000,6.938048095703125,0.07239999622106552,-0.7560999989509583,1.0404000282287598
1702338748568310500,7.037310546875,0.4529999792575836,-1.076799988746643,0.9005999565124512
1702338748667573000,7.136572998046875,0.09999999403953552,-1.5525000095367432,1.1220999956130981
1702338748766837000,7.2358369140625,-0.1282999962568283,-0.495199978351593,0.2953000068664551
1702338748866099500,7.335099365234375,1.0044000148773193,-0.16409999132156372,0.8705999851226807
1702338748965363700,7.43436376953125,0.23089998960494995,1.4742999076843262,1.0663999319076538
1702338749064626200,7.533626220703125,0.32690000534057617,0.9530999660491943,0.5475000143051147
1702338749163890200,7.63289013671875,-0.09359999746084213,-0.26159998774528503,-1.1007999181747437
1702338749263154200,7.732154296875,-1.2496999502182007,0.7195000052452087,-1.3870999813079834
1702338749362416600,7.831416748046875,-0.4253999888896942,0.663100004196167,-2.411099910736084
1702338749461681000,7.930680908203125,-0.8211999535560608,0.09640000015497208,-1.2660999298095703
1702338749560941800,8.02994189453125,-0.03280000016093254,-0.03879999741911888,-1.289099931716919
1702338749660205800,8.129205810546875,-0.2705000042915344,-0.43789997696876526,-1.3043999671936035
1702338749759468300,8.22846826171875,0.5023999810218811,0.0013000000035390258,-0.4976999759674072
1702338749858732300,8.327732177734376,0.3734999895095825,-0.5748999714851379,0.8008999824523926
1702338749957996300,8.426996337890625,-0.3312999904155731,-0.8815000057220459,-0.08869999647140503
1702338750057259000,8.526259033203125,-4.379899978637695,0.007999999448657036,0.46549999713897705
1702338750156521500,8.625521484375,-0.05549999698996544,-0.2586999833583832,-0.2653000056743622
1702338750255785500,8.724785400390624,14.842799186706543,-1.6661999225616455,0.12489999830722809
1702338750355049500,8.824049560546875,0.746399998664856,0.04559999704360962,0.2621999979019165
1702338750454312000,8.92331201171875,0.3637999892234802,-0.3344999849796295,0.023499999195337296
1702338750553574400,9.022574462890624,-0.7440999746322632,-0.1314999908208847,0.17159999907016754
1702338750652838700,9.121838623046875,-0.17520000040531158,-0.014999999664723873,0.1542000025510788
1702338750752102700,9.2211025390625,0.020899999886751175,-0.046299997717142105,0.06269999593496323
1702338750851365000,9.320365234375,-0.028099998831748962,-0.016599999740719795,0.07259999960660934
1702338750950627600,9.419627685546875,-0.11629999428987503,-0.025599999353289604,0.0737999975681305
1702338751049891800,9.518891845703125,-0.10649999976158142,-0.00559999980032444,0.0640999972820282
1702338751149154300,9.618154296875,-0.10649999976158142,-0.025200000032782555,0.07479999959468842
1702338751248416800,9.717416748046874,-0.08689999580383301,-0.015099999494850636,0.06529999524354935
1702338751347680800,9.8166806640625,-0.09669999778270721,-0.04399999976158142,0.07519999891519547
1702338751446944800,9.91594482421875,-0.08689999580383301,-0.02329999953508377,0.08389999717473984
1702338751546207200,10.015207275390624,-0.10659999400377274,-0.022699998691678047,0.06300000101327896
1702338751645470000,10.114469970703125,-0.08699999749660492,-0.03150000050663948,0.07009999454021454
1702338751744734000,10.21373388671875,-0.09679999947547913,-0.010999999940395355,0.05769999697804451
1702338751843996400,10.312996337890626,-0.08699999749660492,-0.01979999989271164,0.0543999969959259
1702338751943260400,10.412260498046875,-0.10669999569654465,-0.009099999442696571,0.06129999831318855
1702338752042523000,10.51152294921875,-0.09690000116825104,-0.00839999970048666,0.04809999838471413
1702338752141785300,10.610785400390625,-0.08709999918937683,-0.036399997770786285,0.04490000009536743
1702338752241049600,10.710049560546874,-0.06749999523162842,-0.006899999920278788,0.04189999774098396
1702338752340313600,10.809313720703125,-0.10679999738931656,-0.015599999576807022,0.03989999741315842
1702338752439576000,10.908576171875,-0.05769999697804451,-0.01489999983459711,0.037699997425079346
1702338752538838500,11.007838623046876,-0.04800000041723251,-0.003700000001117587,0.034299999475479126
1702338752638102500,11.1071025390625,-0.05779999867081642,-0.00279999990016222,0.031700000166893005
1702338752737365200,11.206365234375,-0.03819999843835831,-0.012000000104308128,0.01860000006854534
1702338752836629200,11.305629150390626,-0.0284000001847744,-0.010999999940395355,0.026499999687075615
1702338752935891700,11.4048916015625,-0.03819999843835831,-0.010300000198185444,0.014099999330937862
1702338753035155700,11.50415576171875,-0.008799999952316284,-0.009200000204145908,0.02239999920129776
1702338753134418200,11.603418212890626,0.0008999999845400453,-0.017799999564886093,0.02889999933540821
1702338753233682400,11.702682373046875,-0.03819999843835831,0.002199999988079071,0.017099998891353607
1702338753332945000,11.80194482421875,-0.01860000006854534,0.01209999993443489,0.017500000074505806
1702338753432207400,11.901207275390625,0.010699999518692493,-0.016599999740719795,0.00699999975040555
1702338753531471400,12.000471435546874,0.0008999999845400453,0.003399999812245369,0.006199999712407589
1702338753630733800,12.09973388671875,0.0008999999845400453,0.013100000098347664,0.02329999953508377
1702338753729998000,12.198998046875,0.0008999999845400453,0.0032999999821186066,-0.0072999997064471245
1702338753829260500,12.298260498046876,0.0008999999845400453,-0.005799999926239252,0.0016999999061226845
1702338753928524500,12.397524658203125,0.0008999999845400453,-0.006000000052154064,0.019700000062584877
1702338754027787000,12.496787109375,-0.008799999952316284,0.0031999999191612005,-0.010499999858438969
1702338754127051000,12.596051025390626,0.0008999999845400453,-0.007199999876320362,0.008700000122189522
1702338754226315300,12.695315185546875,0.020499998703598976,0.002899999963119626,-0.002199999988079071
1702338754325577700,12.79457763671875,-0.008799999952316284,0.012299999594688416,-0.012000000104308128
1702338754424840200,12.893840087890625,-0.01860000006854534,-0.007599999662488699,0.016099998727440834
1702338754524104200,12.993104248046874,-0.04800000041723251,0.0017999999690800905,-0.003499999875202775
1702338754623366700,13.09236669921875,-0.04800000041723251,0.0016999999061226845,-0.013299999758601189
1702338754722629000,13.191629150390625,-0.04800000041723251,0.0015999999595806003,-0.00419999985024333
1702338754821893400,13.290893310546876,-0.03819999843835831,-0.007799999788403511,0.005799999926239252
1702338754921155800,13.39015576171875,-0.05790000036358833,-0.007499999832361937,0.0052999998442828655
1702338755020419800,13.489419921875,-0.07750000059604645,0.002099999925121665,0.014099999330937862
1702338755119683800,13.588683837890626,-0.06759999692440033,0.001500000013038516,-0.005200000014156103
1702338755218946300,13.6879462890625,-0.08729999512434006,-0.007699999958276749,0.004600000102072954
1702338755318210600,13.78721044921875,-0.08729999512434006,0.0017999999690800905,0.004100000020116568
1702338755417473000,13.88647314453125,-0.09709999710321426,-0.017500000074505806,-0.01599999889731407
1702338755516735500,13.985735595703124,-0.1264999955892563,-0.007400000002235174,0.003700000001117587
1702338755615999500,14.08499951171875,-0.08729999512434006,-0.007499999832361937,0.01269999984651804
1702338755715262000,14.184261962890625,-0.08729999512434006,-0.017099998891353607,-0.008200000040233135
1702338755814526200,14.283526123046874,-0.11669999361038208,-0.00699999975040555,0.00139999995008111
1702338755913788700,14.38278857421875,-0.10689999908208847,-0.0064999996684491634,0.010799999348819256
1702338756013051100,14.482051025390625,-0.08729999512434006,0.003499999875202775,-0.00969999935477972
1702338756112315100,14.581315185546876,-0.10689999908208847,-0.0058999997563660145,-0.00009999999747378752
1702338756211577600,14.68057763671875,-0.09709999710321426,-0.00559999980032444,-0.0004999999655410647
1702338756310840000,14.779840087890625,-0.1559000015258789,-0.005499999970197678,0.00989999994635582
1702338756410105900,14.87910595703125,-0.06769999861717224,0.004100000020116568,-0.00029999998514540493
1702338756509368300,14.978368408203124,-0.09709999710321426,0.0037999998312443495,-0.011299999430775642
1702338756608630800,15.077630859375,-0.11669999361038208,-0.006000000052154064,-0.021699998527765274
1702338756707894800,15.176894775390625,-0.09709999710321426,-0.01589999906718731,-0.012299999594688416
1702338756807157200,15.2761572265625,-0.10689999908208847,-0.005699999630451202,-0.003000000026077032
1702338756906421500,15.37542138671875,-0.11669999361038208,-0.0050999997183680534,-0.003000000026077032
1702338757005684000,15.47468408203125,-0.08729999512434006,0.013899999670684338,-0.013199999928474426
1702338757104948000,15.573947998046876,-0.10689999908208847,0.0037999998312443495,-0.0032999999821186066
1702338757204210400,15.67321044921875,-0.20499999821186066,0.013199999928474426,0.007199999876320362
1702338757303474400,15.772474365234375,-0.05790000036358833,-0.015699999406933784,-0.023000000044703484
1702338757402737200,15.871737060546875,-0.05790000036358833,-0.00559999980032444,-0.012899999506771564
1702338757501999600,15.97099951171875,-0.07750000059604645,0.02369999885559082,0.006399999838322401
1702338757601262000,16.070261962890626,-0.06769999861717224,0.0142000000923872,-0.011599999852478504
1702338757700526000,16.169526123046875,-0.08729999512434006,0.02410000003874302,-0.0023999998811632395
1702338757799790000,16.2687900390625,-0.08729999512434006,0.0139999995008111,-0.002199999988079071
1702338757899052500,16.368052490234376,-0.0284000001847744,-0.005499999970197678,-0.0210999995470047
1702338757998316800,16.46731689453125,-0.02850000001490116,-0.01489999983459711,-0.010799999348819256
1702338758097579300,16.566579345703126,-0.02850000001490116,-0.0050999997183680534,-0.010400000028312206
1702338758196843300,16.66584326171875,-0.008799999952316284,0.003999999724328518,-0.01939999870955944
1702338758296105700,16.765105712890627,-0.008799999952316284,0.0037999998312443495,0.0004999999655410647
1702338758395368200,16.8643681640625,-0.008799999952316284,0.003499999875202775,-0.01809999905526638
1702338758494632400,16.963632568359376,0.0008999999845400453,-0.006099999882280827,-0.0071000000461936
1702338758593895000,17.06289501953125,-0.008799999952316284,0.013199999928474426,0.0031999999191612005
1702338758693159000,17.162158935546874,-0.008799999952316284,-0.0064999996684491634,-0.016099998727440834
1702338758792423000,17.2614228515625,0.0008999999845400453,-0.006300000008195639,-0.005799999926239252
1702338758891683800,17.360683837890626,-0.0284000001847744,0.013100000098347664,0.005200000014156103
1702338758990947800,17.45994775390625,0.010699999518692493,-0.006000000052154064,-0.004900000058114529
1702338759090210600,17.55921044921875,0.0008999999845400453,0.013100000098347664,-0.00559999980032444
1702338759189474600,17.658474609375,0.0008999999845400453,-0.006300000008195639,-0.015399999916553497
1702338759288737000,17.757737060546877,-0.01860000006854534,0.013199999928474426,0.004399999976158142
1702338759388001000,17.8570009765625,-0.01860000006854534,-0.0064999996684491634,0.003499999875202775
1702338759487263500,17.956263427734374,-0.03830000013113022,0.003499999875202775,-0.006199999712407589
1702338759586527700,18.05552783203125,-0.0284000001847744,0.0038999998942017555,0.002300000051036477
1702338759685790200,18.154790283203123,-0.05790000036358833,0.013899999670684338,-0.007499999832361937
1702338759785052700,18.254052734375,-0.04809999838471413,0.003700000001117587,-0.008299999870359898
1702338759884316700,18.353316650390624,-0.05790000036358833,0.0037999998312443495,0.00139999995008111
1702338759983580700,18.45258056640625,-0.04809999838471413,-0.006099999882280827,0.000699999975040555
1702338760082843400,18.551843505859374,-0.06769999861717224,-0.006300000008195639,-0.00009999999747378752
1702338760182105900,18.65110595703125,-0.06769999861717224,0.003399999812245369,-0.0007999999797903001
1702338760281369900,18.750369873046875,-0.06769999861717224,-0.006399999838322401,0.008899999782443047
1702338760380633900,18.8496337890625,-0.08729999512434006,0.003499999875202775,-0.011399999260902405
1702338760479896300,18.948896240234376,-0.07750000059604645,-0.01549999974668026,0.007499999832361937
1702338760579158800,19.04815869140625,-0.08729999512434006,-0.00559999980032444,-0.022099999710917473
1702338760678423000,19.147423095703125,-0.07750000059604645,-0.006099999882280827,-0.022299999371170998
1702338760777685500,19.246685546875,-0.09709999710321426,-0.006099999882280827,-0.0030999998562037945
1702338760876949500,19.345949462890626,-0.07750000059604645,-0.025699999183416367,-0.0032999999821186066
1702338760976212000,19.4452119140625,-0.19519999623298645,-0.006000000052154064,-0.0017999999690800905
1702338761075476000,19.54447607421875,-0.0284000001847744,-0.014800000004470348,-0.012799999676644802
1702338761174740200,19.643740234375,-0.09709999710321426,-0.0050999997183680534,0.006099999882280827
1702338761274001200,19.743001220703125,-0.09709999710321426,-0.0050999997183680534,-0.013799999840557575
1702338761373265200,19.84226513671875,-0.10689999908208847,-0.014399999752640724,-0.013599999248981476
1702338761472527600,19.941527587890626,-0.09709999710321426,-0.003499999875202775,-0.014099999330937862
1702338761571791600,20.04079150390625,-0.11669999361038208,-0.0032999999821186066,-0.024000000208616257
1702338761671054300,20.140054443359375,-0.1264999955892563,-0.013199999928474426,-0.0139999995008111
1702338761770318300,20.239318359375,-0.16579999029636383,0.006399999838322401,0.005200000014156103
1702338761869580800,20.338580810546876,-0.07750000059604645,-0.003399999812245369,-0.014999999664723873
1702338761968844800,20.4378447265625,-0.11669999361038208,-0.0031999999191612005,-0.015799999237060547
1702338762068107300,20.537107177734374,-0.1264999955892563,0.006599999964237213,-0.01549999974668026
1702338762167371500,20.63637158203125,-0.11669999361038208,0.006799999624490738,-0.01549999974668026
1702338762266634000,20.735634033203127,-0.10689999908208847,-0.01269999984651804,-0.005499999970197678
1702338762365898000,20.83489794921875,-0.10689999908208847,-0.01209999993443489,-0.015099999494850636
1702338762465160400,20.934160400390624,-0.07750000059604645,0.007599999662488699,-0.00559999980032444
1702338762564423000,21.0334228515625,-0.08729999512434006,0.007599999662488699,-0.004900000058114529
1702338762663687000,21.13268701171875,-0.07750000059604645,-0.0015999999595806003,-0.004699999932199717
1702338762762949600,21.23194970703125,-0.04809999838471413,0.008200000040233135,-0.023899998515844345
1702338762862213600,21.331213623046875,-0.04809999838471413,0.01769999973475933,-0.023499999195337296
1702338762961476000,21.43047607421875,-0.04809999838471413,-0.002099999925121665,-0.013599999248981476
1702338763060740000,21.529739990234376,-0.018699999898672104,0.0066999997943639755,-0.022699998691678047
1702338763160002600,21.62900244140625,-0.03830000013113022,-0.0032999999821186066,-0.012399999424815178
1702338763259266800,21.728266845703125,-0.02850000001490116,-0.0030999998562037945,-0.00279999990016222
1702338763358529300,21.827529296875,-0.02850000001490116,-0.0030999998562037945,-0.021199999377131462
1702338763457793300,21.926793212890626,-0.02850000001490116,0.006199999712407589,-0.010799999348819256
1702338763557055700,22.0260556640625,-0.018699999898672104,0.0052999998442828655,-0.00039999998989515007
1702338763656319700,22.12531982421875,-0.008799999952316284,-0.004900000058114529,-0.009499999694526196
1702338763755582500,22.22458251953125,-0.008799999952316284,-0.004799999762326479,-0.01850000023841858
1702338763854845000,22.323844970703124,-0.018699999898672104,0.01489999983459711,-0.007599999662488699
1702338763954107400,22.423107421875,-0.008799999952316284,0.004699999932199717,-0.007699999958276749
1702338764053373000,22.522373046875,0.0008999999845400453,0.02290000021457672,-0.006599999964237213
1702338764152635400,22.621635498046874,-0.008799999952316284,0.003499999875202775,0.002899999963119626
1702338764251897900,22.72089794921875,-0.008799999952316284,0.0030999998562037945,-0.0072999997064471245
1702338764351162000,22.820162109375,0.0008999999845400453,0.0032999999821186066,0.0010999999940395355
1702338764450424600,22.919424560546876,-0.0284000001847744,0.002899999963119626,-0.008999999612569809
1702338764549688600,23.0186884765625,-0.0284000001847744,0.0030999998562037945,-0.019500000402331352
1702338764648951000,23.117950927734373,-0.04800000041723251,-0.00699999975040555,-0.00989999994635582
1702338764748213500,23.217213623046874,-0.06769999861717224,-0.0066999997943639755,-0.019700000062584877
1702338764847477800,23.316477783203126,-0.06769999861717224,-0.0064999996684491634,-0.019600000232458115
1702338764946741800,23.41574169921875,-0.05790000036358833,-0.0058999997563660145,-0.019899999722838402
1702338765046004200,23.515004150390624,-0.06769999861717224,0.013700000010430813,-0.010999999940395355
1702338765145266700,23.6142666015625,-0.05790000036358833,0.0031999999191612005,-0.02029999904334545
1702338765244529200,23.713529052734376,-0.05790000036358833,-0.0064999996684491634,-0.010900000110268593
1702338765343793200,23.812793212890625,-0.04809999838471413,-0.006099999882280827,-0.001500000013038516
1702338765443055900,23.912055908203126,-0.05790000036358833,-0.005799999926239252,-0.00139999995008111
1702338765542319900,24.01131982421875,-0.06769999861717224,-0.015199999324977398,-0.021399999037384987
1702338765641583900,24.110583984375,-0.06769999861717224,0.00419999985024333,-0.012000000104308128
1702338765740846300,24.209846435546876,-0.05790000036358833,-0.014800000004470348,-0.01249999925494194
1702338765840108800,24.30910888671875,-0.07750000059604645,-0.0044999998062849045,-0.003499999875202775
1702338765939373000,24.408373046875,-0.07750000059604645,-0.013899999670684338,-0.013599999248981476
1702338766038635500,24.507635498046874,-0.09709999710321426,-0.0037999998312443495,-0.0142000000923872
1702338766137899500,24.6068994140625,-0.09709999710321426,-0.003599999938160181,-0.02410000003874302
1702338766237162000,24.706161865234375,-0.08729999512434006,0.006300000008195639,-0.004600000102072954
1702338766336424400,24.805424560546875,-0.10689999908208847,0.016499999910593033,0.004600000102072954
1702338766435688700,24.904688720703124,-0.1264999955892563,-0.0032999999821186066,-0.00559999980032444
1702338766534952700,25.00395263671875,-0.09709999710321426,-0.003000000026077032,-0.006599999964237213
1702338766634215200,25.103215087890625,-0.1264999955892563,-0.012899999506771564,-0.016699999570846558
1702338766733477600,25.2024775390625,-0.11669999361038208,-0.012799999676644802,-0.008899999782443047
1702338766832741600,25.30174169921875,-0.10689999908208847,-0.012999999336898327,-0.029099998995661736
1702338766932004000,25.401004150390627,-0.10689999908208847,-0.003000000026077032,-0.019199999049305916
1702338767031268400,25.500268310546875,-0.11669999361038208,0.0071000000461936,-0.009399999864399433
1702338767130530800,25.59953076171875,-0.09709999710321426,-0.0024999999441206455,-0.0005999999702908099
1702338767229794800,25.698794921875,-0.1264999955892563,0.0071000000461936,-0.010099999606609344
1702338767329057300,25.798057373046873,-0.10689999908208847,-0.002199999988079071,-0.019500000402331352
1702338767428321300,25.8973212890625,-0.10689999908208847,-0.0023999998811632395,-0.00039999998989515007
1702338767527584000,25.996583984375,-0.09709999710321426,0.0071000000461936,-0.000699999975040555
1702338767626846500,26.095846435546875,-0.08729999512434006,0.006899999920278788,-0.019500000402331352
1702338767726110500,26.1951103515625,-0.06769999861717224,-0.002899999963119626,-0.019899999722838402
1702338767825374500,26.29437451171875,-0.07750000059604645,0.006599999964237213,-0.01939999870955944
1702338767924637000,26.393636962890625,-0.04809999838471413,0.0072999997064471245,0
1702338768023899600,26.492899658203125,-0.03830000013113022,0.007400000002235174,-0.020099999383091927
1702338768123163600,26.59216357421875,-0.02850000001490116,-0.002199999988079071,-0.030700000002980232
1702338768222426000,26.691426025390626,-0.03830000013113022,-0.002300000051036477,-0.011399999260902405
1702338768321690000,26.790690185546875,-0.0284000001847744,0.006199999712407589,-0.00989999994635582
1702338768420952600,26.88995263671875,-0.008799999952316284,-0.003399999812245369,-0.027799999341368675
1702338768520216800,26.989216796875,-0.018699999898672104,0.006300000008195639,-0.01719999872148037
1702338768619479300,27.088479248046873,-0.008799999952316284,-0.013199999928474426,-0.006799999624490738
1702338768718741800,27.18774169921875,-0.008899999782443047,-0.003399999812245369,-0.015099999494850636
1702338768818005800,27.287005859375,-0.05790000036358833,0.006000000052154064,-0.01529999915510416
1702338768917268200,27.386268310546875,-0.018699999898672104,0.006199999712407589,-0.01489999983459711
1702338769016532200,27.4855322265625,0.0008999999845400453,-0.013299999758601189,-0.024399999529123306
1702338769115795000,27.584794921875,0.0008999999845400453,-0.003399999812245369,-0.025299999862909317
1702338769215059000,27.684058837890625,0.0008999999845400453,0.006399999838322401,-0.01599999889731407
1702338769314321400,27.7833212890625,-0.02850000001490116,0.0066999997943639755,-0.025599999353289604
1702338769413585400,27.88258544921875,-0.018699999898672104,0.0066999997943639755,-0.01529999915510416
1702338769512848000,27.981847900390626,0.2459999918937683,0.07569999992847443,-0.21159999072551727
1702338769612112100,28.081112060546875,-0.3619000017642975,0.02239999920129776,0.002099999925121665
1702338769711374600,28.18037451171875,-0.17559999227523804,0.004399999976158142,0.021800000220537186
1702338769810638600,28.279638671875,-0.08729999512434006,-0.014800000004470348,0.0030999998562037945
1702338769909901000,28.378901123046877,-0.05790000036358833,-0.01529999915510416,-0.007699999958276749
1702338770009163500,28.47816357421875,-0.05790000036358833,-0.006199999712407589,0.010499999858438969
1702338770108427800,28.577427734375,-0.07750000059604645,-0.035099998116493225,-0.007499999832361937
1702338770207691800,28.67669189453125,-0.07750000059604645,-0.015399999916553497,-0.006899999920278788
1702338770306954200,28.775954345703123,-0.10689999908208847,-0.015599999576807022,0.0017999999690800905
1702338770406216700,28.875216796875,-0.09709999710321426,0.004399999976158142,0.010900000110268593
1702338770505480700,28.974480712890625,-0.1460999995470047,-0.004999999888241291,0.01119999960064888
1702338770604743200,29.0737431640625,-0.11669999361038208,-0.004600000102072954,0.0008999999845400453
1702338770704007400,29.17300732421875,-0.07750000059604645,-0.0142000000923872,-0.009800000116229057
1702338770803270000,29.272269775390626,-0.11669999361038208,-0.0038999998942017555,-0.008999999612569809
1702338770902534000,29.371533935546875,-0.04809999838471413,-0.0037999998312443495,-0.00930000003427267
1702338771001796400,29.47079638671875,-0.21480000019073486,0.016200000420212746,0.020499998703598976
1702338771101060400,29.570060302734376,-0.15600000321865082,-0.003499999875202775,0.00969999935477972
1702338771200323000,29.669322998046876,-0.06769999861717224,0.015799999237060547,0.0007999999797903001
1702338771299585500,29.76858544921875,-0.1462000012397766,-0.013199999928474426,0
1702338771398849500,29.867849609375,-0.11679999530315399,-0.012799999676644802,-0.0004999999655410647
1702338771498112000,29.967112060546874,-0.11679999530315399,0.0071000000461936,-0.0007999999797903001
1702338771597376000,30.0663759765625,-0.10700000077486038,-0.012299999594688416,-0.0010999999940395355
1702338771696638500,30.165638427734375,-0.1462000012397766,-0.0024999999441206455,-0.0013000000035390258
1702338771795902700,30.26490283203125,-0.10700000077486038,-0.001999999862164259,0.007899999618530273
1702338771895165200,30.364165283203125,-0.08729999512434006,-0.002099999925121665,0.007699999958276749
1702338771994429200,30.46342919921875,-0.11679999530315399,-0.0015999999595806003,-0.012299999594688416
1702338772093691600,30.562691650390626,-0.1265999972820282,-0.0013000000035390258,-0.002199999988079071
1702338772192955600,30.66195556640625,-0.11679999530315399,0.008299999870359898,-0.001999999862164259
1702338772292218400,30.76121826171875,-0.1265999972820282,-0.001500000013038516,-0.011799999512732029
1702338772391482400,30.860482421875,-0.10700000077486038,-0.01119999960064888,0.007599999662488699
1702338772490744800,30.959744873046876,-0.11679999530315399,-0.0011999999405816197,-0.011799999512732029
1702338772590008800,31.0590087890625,-0.04809999838471413,-0.00139999995008111,-0.011599999852478504
1702338772689269800,31.158269775390625,-0.06769999861717224,0.017899999395012856,-0.0011999999405816197
1702338772788534000,31.257533935546874,-0.06769999861717224,0.007899999618530273,-0.000699999975040555
1702338772887796500,31.35679638671875,-0.06769999861717224,-0.0016999999061226845,0.017899999395012856
1702338772987060500,31.456060546875,-0.05790000036358833,0.008200000040233135,-0.0018999999156221747
1702338773086323000,31.555322998046876,-0.02850000001490116,0.007400000002235174,0.00839999970048666
1702338773185587000,31.6545869140625,-0.03830000013113022,-0.002099999925121665,0.007899999618530273
1702338773284851200,31.753851318359374,-0.008899999782443047,0.017099998891353607,-0.0017999999690800905
1702338773384113700,31.85311376953125,-0.02850000001490116,0.007199999876320362,-0.0017999999690800905
1702338773483376000,31.952376220703126,-0.008899999782443047,-0.0018999999156221747,0.007599999662488699
1702338773582640000,32.05164013671875,-0.008899999782443047,0.008100000210106373,-0.011899999342858791
1702338773681902600,32.15090258789063,-0.008899999782443047,-0.011799999512732029,-0.0013000000035390258
1702338773781166600,32.25016650390625,-0.008899999782443047,-0.002099999925121665,0.008899999782443047
1702338773880429300,32.34942919921875,0.0007999999797903001,0.007199999876320362,-0.0010999999940395355
1702338773979693300,32.448693359375,-0.018699999898672104,0.016200000420212746,-0.0007999999797903001
1702338774078955800,32.547955810546874,0.0007999999797903001,0.0050999997183680534,-0.0008999999845400453
1702338774178218200,32.64721826171875,-0.008899999782443047,-0.004900000058114529,0.008899999782443047
1702338774277482200,32.74648217773437,-0.018699999898672104,-0.015099999494850636,-0.010499999858438969
1702338774376745000,32.845744873046876,-0.0284000001847744,0.0032999999821186066,-0.010900000110268593
1702338774476009000,32.94500903320313,-0.02850000001490116,0.013299999758601189,-0.001500000013038516
1702338774575271400,33.044271484375,-0.02850000001490116,0.003399999812245369,-0.01119999960064888
1702338774674535400,33.143535400390626,-0.04809999838471413,-0.0058999997563660145,-0.0018999999156221747
1702338774773798000,33.2427978515625,-0.05790000036358833,0.0038999998942017555,-0.01209999993443489
1702338774873062100,33.342062255859375,-0.06769999861717224,-0.006000000052154064,0.0071000000461936
1702338774972324600,33.44132470703125,-0.07750000059604645,-0.00559999980032444,-0.003399999812245369
1702338775071588600,33.54058862304687,-0.08729999512434006,-0.005200000014156103,0.00559999980032444
1702338775170851000,33.63985107421875,-0.10689999908208847,-0.00559999980032444,-0.013399999588727951
1702338775270113500,33.73911352539063,-0.08729999512434006,-0.015099999494850636,-0.013399999588727951
1702338775369377500,33.83837744140625,-0.07750000059604645,-0.004900000058114529,-0.003999999724328518
1702338775468640300,33.93764013671875,-0.09709999710321426,-0.004999999888241291,-0.013499999418854713
1702338775567904300,34.036904296875,-0.09709999710321426,-0.014699999243021011,-0.004299999680370092
1702338775667166700,34.136166748046875,-0.09709999710321426,0.014299999922513962,-0.014099999330937862
1702338775766430700,34.2354306640625,-0.07750000059604645,-0.004900000058114529,-0.004699999932199717
1702338775865693200,34.33469311523437,-0.05790000036358833,0.004900000058114529,-0.004699999932199717
1702338775964957400,34.43395751953125,-0.08729999512434006,-0.004900000058114529,-0.013499999418854713
1702338776064220000,34.53321997070312,0.19699999690055847,-0.043299999088048935,-0.030799999833106995
1702338776163484000,34.63248388671875,-0.16579999029636383,0.02539999969303608,0.01759999990463257
1702338776262746400,34.73174633789063,-0.11669999361038208,-0.003499999875202775,-0.0015999999595806003
1702338776362010400,34.83101025390625,0.0007999999797903001,-0.03240000084042549,-0.012399999424815178
1702338776461273000,34.930273193359376,-0.03830000013113022,-0.012799999676644802,0.00699999975040555
1702338776560537000,35.029537109375,-0.03830000013113022,-0.013199999928474426,-0.013100000098347664
1702338776659799600,35.128799560546874,-0.018699999898672104,-0.0032999999821186066,0.007199999876320362
1702338776759062000,35.22806201171875,-0.08729999512434006,-0.013199999928474426,0.016899999231100082
1702338776858326000,35.32732592773438,-0.07750000059604645,-0.003399999812245369,0.0071000000461936
1702338776957588500,35.42658837890625,-0.07750000059604645,-0.003399999812245369,0.006799999624490738
1702338777056852700,35.52585278320313,-0.08729999512434006,-0.0032999999821186066,-0.012799999676644802
1702338777156115200,35.625115234375,-0.11669999361038208,-0.003399999812245369,-0.012799999676644802
1702338777255379200,35.724379150390625,-0.11679999530315399,0.006599999964237213,-0.01269999984651804
1702338777354641700,35.8236416015625,-0.11679999530315399,-0.012600000016391277,-0.002899999963119626
1702338777453905700,35.92290576171875,-0.09709999710321426,0.007199999876320362,-0.01249999925494194
1702338777553168400,36.02216845703125,-0.09709999710321426,-0.00279999990016222,-0.012399999424815178
1702338777652432400,36.12143237304687,-0.08729999512434006,0.00699999975040555,-0.01269999984651804
1702338777751694800,36.22069482421875,-0.05790000036358833,-0.0024999999441206455,0.00699999975040555
1702338777850957300,36.31995727539063,-0.07750000059604645,0.006899999920278788,0.007499999832361937
1702338777950221300,36.41922119140625,-0.04809999838471413,-0.01269999984651804,-0.0018999999156221747
1702338778049483800,36.51848388671875,-0.05790000036358833,0.016899999231100082,0.0072999997064471245
1702338778148748000,36.617748046875,-0.05790000036358833,0.006899999920278788,0.00699999975040555
1702338778248010500,36.717010498046875,-0.03830000013113022,-0.0023999998811632395,-0.0026000000070780516
1702338778347274500,36.8162744140625,-0.02850000001490116,0.0072999997064471245,-0.003000000026077032
1702338778446537000,36.91553686523437,-0.018699999898672104,-0.01209999993443489,0.0058999997563660145
1702338778545801000,37.014801025390625,-0.008899999782443047,0.007499999832361937,-0.012799999676644802
1702338778645063700,37.11406372070312,-0.018699999898672104,-0.03139999881386757,-0.01249999925494194
1702338778744327700,37.21332763671875,-0.018699999898672104,0.017899999395012856,-0.00279999990016222
1702338778843590100,37.31259008789063,-0.02850000001490116,0.017500000074505806,-0.0031999999191612005
1702338778942854100,37.41185424804687,-0.008899999782443047,-0.0031999999191612005,-0.013199999928474426
1702338779042116600,37.51111669921875,-0.008899999782443047,0.006300000008195639,0.0058999997563660145
1702338779141379300,37.61037939453125,-0.008899999782443047,-0.003599999938160181,-0.013700000010430813
1702338779240643300,37.70964331054687,-0.018699999898672104,-0.003999999724328518,-0.013299999758601189
1702338779339905800,37.80890576171875,0.0007999999797903001,-0.022699998691678047,-0.003700000001117587
1702338779439169800,37.90816967773438,-0.008899999782443047,-0.002199999988079071,0.0058999997563660145
1702338779538432300,38.007432373046875,-0.02850000001490116,0.01730000041425228,-0.0038999998942017555
1702338779637696500,38.10669653320313,-0.02850000001490116,-0.0023999998811632395,-0.0038999998942017555
1702338779736959000,38.205958984375,-0.03830000013113022,-0.0026000000070780516,-0.0139999995008111
1702338779836223000,38.305222900390625,-0.06769999861717224,-0.002199999988079071,-0.004600000102072954
1702338779935485400,38.4044853515625,-0.06769999861717224,0.007199999876320362,-0.014800000004470348
1702338780034749400,38.50374951171875,-0.07750000059604645,0.017099998891353607,-0.004399999976158142
1702338780134012000,38.603011962890626,-0.08729999512434006,0.01730000041425228,-0.004799999762326479
1702338780233274600,38.70227465820312,-0.08729999512434006,0.007199999876320362,-0.014699999243021011
1702338780332538600,38.80153857421875,-0.08729999512434006,0.00699999975040555,-0.0050999997183680534
1702338780431801000,38.90080102539063,-0.09709999710321426,-0.01269999984651804,-0.0050999997183680534
1702338780531065000,39.00006518554687,-0.08729999512434006,-0.0030999998562037945,0.014800000004470348
1702338780630327600,39.09932763671875,-0.07750000059604645,-0.00279999990016222,-0.004600000102072954
1702338780729590300,39.19859033203125,-0.09709999710321426,-0.002899999963119626,0.0044999998062849045
1702338780828854300,39.297854248046875,-0.09709999710321426,0.00699999975040555,0.0044999998062849045
1702338780928118300,39.3971181640625,-0.07750000059604645,0.007499999832361937,0.004299999680370092
1702338781027380700,39.49638061523437,-0.10700000077486038,-0.002199999988079071,0.0044999998062849045
1702338781126644700,39.595644775390625,-0.11679999530315399,0.007400000002235174,0.004600000102072954
1702338781225907500,39.69490747070312,-0.09709999710321426,-0.001999999862164259,0.004900000058114529
1702338781325171500,39.79417138671875,-0.09719999879598618,0.007699999958276749,-0.004900000058114529
1702338781424434000,39.893433837890626,-0.10700000077486038,-0.011500000022351742,-0.014699999243021011
1702338781523696400,39.9926962890625,-0.1265999972820282,-0.001999999862164259,-0.0044999998062849045
1702338781622958800,40.091958740234375,-0.10700000077486038,-0.012000000104308128,0.004900000058114529
1702338781722222800,40.19122290039063,-0.11679999530315399,-0.0023999998811632395,0.015099999494850636
1702338781821485600,40.290485595703124,-0.11679999530315399,0.007400000002235174,-0.014299999922513962
1702338781920751000,40.389751220703126,-0.09709999710321426,-0.0023999998811632395,-0.014099999330937862
1702338782020012000,40.48901196289062,-0.11679999530315399,-0.002099999925121665,0.005399999674409628
1702338782119276000,40.588276123046874,-0.11679999530315399,-0.002099999925121665,-0.004299999680370092
1702338782218538500,40.68753857421875,-0.1265999972820282,-0.0023999998811632395,-0.004399999976158142
1702338782317802800,40.786802734375,-0.10700000077486038,-0.002300000051036477,-0.004600000102072954
1702338782417066800,40.886066650390624,-0.11679999530315399,0.0072999997064471245,-0.00419999985024333
1702338782516329200,40.9853291015625,-0.10689999908208847,0.01640000008046627,-0.004100000020116568
1702338782615591700,41.084591796875,-0.09709999710321426,-0.012600000016391277,0.00559999980032444
1702338782714855700,41.183855712890626,-0.09709999710321426,-0.0026000000070780516,-0.003700000001117587
1702338782814120000,41.28311987304688,-0.07750000059604645,-0.0024999999441206455,-0.012600000016391277
1702338782913382400,41.38238232421875,-0.05790000036358833,0.007499999832361937,-0.012999999336898327
1702338783012644900,41.48164477539063,-0.06769999861717224,0.007199999876320362,-0.00279999990016222
1702338783111907300,41.5809072265625,-0.04809999838471413,0.017099998891353607,-0.012199999764561653
1702338783211171300,41.68017138671875,-0.03830000013113022,-0.002199999988079071,-0.012199999764561653
1702338783310433800,41.77943383789062,-0.03830000013113022,-0.0018999999156221747,-0.0026000000070780516
1702338783409699600,41.87869946289062,-0.02850000001490116,0.007599999662488699,-0.002199999988079071
1702338783508960500,41.97796044921875,-0.03830000013113022,-0.0024999999441206455,-0.0015999999595806003
1702338783608224500,42.077224609375,-0.02850000001490116,-0.002199999988079071,0.007499999832361937
1702338783707487000,42.176487060546876,-0.018699999898672104,-0.00279999990016222,-0.0024999999441206455
1702338783806751000,42.2757509765625,0.0007999999797903001,-0.0031999999191612005,-0.0016999999061226845
1702338783906013700,42.375013671875,-0.008899999782443047,0.01640000008046627,-0.0016999999061226845
1702338784005277700,42.474277587890626,-0.018699999898672104,0.006399999838322401,-0.011699999682605267
1702338784104540200,42.5735400390625,0.0007999999797903001,0.01599999889731407,-0.010099999606609344
1702338784203804200,42.67280419921875,-0.018699999898672104,-0.013299999758601189,0.00019999999494757503
1702338784303066600,42.77206665039063,0.0007999999797903001,-0.003599999938160181,-0.00019999999494757503
1702338784402329000,42.8713291015625,-0.018699999898672104,0.005799999926239252,-0.0007999999797903001
1702338784501593300,42.97059326171875,-0.008899999782443047,0.004999999888241291,0.009200000204145908
1702338784600855800,43.06985571289062,-0.02850000001490116,-0.004600000102072954,0.008999999612569809
1702338784700119800,43.169119873046874,-0.03830000013113022,0.014800000004470348,-0.010099999606609344
1702338784799382300,43.26838232421875,-0.04809999838471413,-0.014699999243021011,-0.0007999999797903001
1702338784898646300,43.36764624023437,-0.05790000036358833,-0.014599999412894249,-0.000699999975040555
1702338784997909000,43.466908935546876,-0.04809999838471413,0.004999999888241291,0.009499999694526196
1702338785097173000,43.56617309570313,-0.07750000059604645,0.004900000058114529,-0.00039999998989515007
1702338785196435500,43.665435546875,-0.08729999512434006,-0.004600000102072954,-0.0011999999405816197
1702338785295699500,43.764699462890626,-0.09709999710321426,-0.004600000102072954,-0.011399999260902405
1702338785394962000,43.8639619140625,-0.07750000059604645,0.005399999674409628,0.0072999997064471245
1702338785494224600,43.963224609375,-0.09709999710321426,-0.013499999418854713,0.007400000002235174
1702338785593488600,44.06248852539063,-0.11669999361038208,0.006000000052154064,-0.002699999837204814
1702338785692751000,44.161751220703124,-0.10689999908208847,0.006000000052154064,-0.0032999999821186066
1702338785792015000,44.26101513671875,-0.09709999710321426,-0.013299999758601189,0.006399999838322401
1702338785891277600,44.36027758789062,-0.10689999908208847,-0.012999999336898327,0.006300000008195639
1702338785990541800,44.459541748046874,-0.11679999530315399,-0.012899999506771564,0.006199999712407589
1702338786089804300,44.55880419921875,-0.1363999992609024,-0.002899999963119626,-0.012899999506771564
1702338786189068300,44.658068359375,-0.11679999530315399,-0.0030999998562037945,0.006000000052154064
1702338786288330800,44.757330810546875,-0.09709999710321426,0.0064999996684491634,0.006199999712407589
1702338786387594800,44.8565947265625,-0.08729999512434006,-0.0031999999191612005,-0.003499999875202775
1702338786486857200,44.95585717773437,-0.10689999908208847,-0.003000000026077032,0.005799999926239252
1702338786586120000,45.05511987304688,-0.10689999908208847,0.0071000000461936,0.005200000014156103
1702338786685384000,45.15438403320312,-0.08729999512434006,-0.002699999837204814,-0.004699999932199717
1702338786784648000,45.25364794921875,-0.08729999512434006,-0.002199999988079071,0.004999999888241291
1702338786883908900,45.35290893554688,-0.06769999861717224,0.00699999975040555,-0.004799999762326479
1702338786983172900,45.4521728515625,-0.08729999512434006,-0.012299999594688416,-0.004299999680370092
1702338787082437000,45.55143701171875,-0.07750000059604645,-0.012299999594688416,0.015099999494850636
1702338787181699600,45.65069946289063,-0.06769999861717224,-0.012299999594688416,-0.003999999724328518
1702338787280963600,45.749963623046874,-0.07750000059604645,0.006899999920278788,-0.004100000020116568
1702338787380226000,45.84922607421875,-0.09709999710321426,-0.00279999990016222,0.005699999630451202
1702338787479490000,45.94848999023438,-0.08729999512434006,-0.012299999594688416,-0.00419999985024333
1702338787578752800,46.047752685546875,-0.09709999710321426,-0.00279999990016222,-0.0037999998312443495
1702338787678016800,46.14701684570313,-0.08729999512434006,-0.002699999837204814,0.005699999630451202
1702338787777279200,46.246279296875,-0.09709999710321426,-0.002199999988079071,-0.00419999985024333
1702338787876543200,46.345543212890625,-0.06769999861717224,-0.001999999862164259,0.005200000014156103
1702338787975805700,46.4448056640625,-0.05790000036358833,-0.011799999512732029,-0.0044999998062849045
1702338788075070000,46.544070068359375,-0.06769999861717224,-0.0026000000070780516,-0.004699999932199717
1702338788174332400,46.64333251953125,-0.03830000013113022,-0.012199999764561653,-0.00419999985024333
1702338788273595000,46.742594970703124,-0.04809999838471413,-0.021900000050663948,-0.0044999998062849045
1702338788372857300,46.841857421875,-0.02850000001490116,-0.002300000051036477,-0.004399999976158142
1702338788472121300,46.94112133789063,-0.02850000001490116,0.007599999662488699,0.005399999674409628
1702338788571385300,47.04038525390625,-0.008899999782443047,-0.011699999682605267,0.00559999980032444
1702338788670648000,47.13964794921875,-0.018699999898672104,0.007199999876320362,0.01529999915510416
1702338788769910500,47.23891064453125,-0.018699999898672104,-0.00279999990016222,-0.004100000020116568
1702338788869174500,47.338174560546875,-0.008899999782443047,0.006799999624490738,0.00559999980032444
1702338788968437000,47.43743701171875,-0.018699999898672104,-0.003000000026077032,0.00559999980032444
1702338789067701000,47.53670092773437,-0.008899999782443047,0.007199999876320362,-0.012799999676644802
1702338789166965200,47.63596533203125,0.0007999999797903001,0.0071000000461936,0.00559999980032444
1702338789266227700,47.73522778320312,-0.018699999898672104,0.006199999712407589,0.0071000000461936
1702338789365490200,47.834490234375,-0.018699999898672104,-0.0031999999191612005,-0.0032999999821186066
1702338789464754200,47.93375415039063,-0.018699999898672104,0.006399999838322401,0.006399999838322401
1702338789564016600,48.0330166015625,-0.03830000013113022,0.0064999996684491634,-0.002899999963119626
1702338789663279000,48.132279052734376,-0.05790000036358833,-0.002699999837204814,-0.012299999594688416
1702338789762543400,48.23154345703125,-0.04809999838471413,0.007199999876320362,-0.0026000000070780516
1702338789861805800,48.330805908203125,-0.05790000036358833,-0.002300000051036477,-0.002899999963119626
1702338789961069800,48.43006982421875,-0.06769999861717224,-0.0017999999690800905,0.00699999975040555
1702338790060333800,48.52933374023438,-0.07750000059604645,-0.0018999999156221747,-0.002699999837204814
1702338790159596300,48.62859619140625,-0.07750000059604645,-0.011799999512732029,-0.00279999990016222
1702338790258859000,48.72785888671875,-0.10700000077486038,-0.011599999852478504,0.0064999996684491634
1702338790358123000,48.827123046875,-0.10700000077486038,0.007799999788403511,0.006599999964237213
1702338790457385500,48.926385498046876,-0.09719999879598618,-0.0018999999156221747,-0.013399999588727951
1702338790556649500,49.0256494140625,-0.10700000077486038,-0.002099999925121665,0.006099999882280827
1702338790655913500,49.12491357421875,-0.09709999710321426,-0.002300000051036477,-0.0037999998312443495
1702338790755176200,49.22417626953125,-0.09719999879598618,-0.002099999925121665,0.006199999712407589
1702338790854438700,49.32343872070312,-0.10700000077486038,0.007400000002235174,-0.004100000020116568
1702338790953702700,49.42270263671875,-0.10700000077486038,-0.0023999998811632395,-0.003999999724328518
1702338791052965000,49.52196508789063,-0.1265999972820282,-0.001999999862164259,0.005699999630451202
1702338791152227600,49.6212275390625,-0.10700000077486038,-0.002099999925121665,-0.013499999418854713
1702338791251491800,49.72049194335938,-0.10700000077486038,-0.0018999999156221747,0.005799999926239252
1702338791350754300,49.81975439453125,-0.1363999992609024,-0.011399999260902405,0.006000000052154064
1702338791450018300,49.919018310546875,-0.10700000077486038,-0.001500000013038516,-0.003700000001117587
1702338791549280800,50.01828076171875,-0.10700000077486038,0.008299999870359898,-0.0037999998312443495
1702338791648544800,50.11754467773437,-0.1265999972820282,-0.0008999999845400453,-0.004399999976158142
1702338791747809000,50.21680908203125,-0.11679999530315399,-0.0009999999310821295,-0.004600000102072954
1702338791847071500,50.31607153320312,-0.10700000077486038,-0.0009999999310821295,-0.003700000001117587
1702338791946334000,50.415333984375,-0.1265999972820282,0.008700000122189522,-0.00419999985024333
1702338792045598000,50.514597900390626,-0.11679999530315399,-0.010799999348819256,-0.004900000058114529
1702338792144860400,50.6138603515625,-0.11679999530315399,0.008499999530613422,0.004999999888241291
1702338792244123000,50.713122802734375,-0.11679999530315399,-0.010799999348819256,-0.0044999998062849045
1702338792343387100,50.81238720703125,-0.10700000077486038,-0.000699999975040555,-0.005200000014156103
1702338792442649600,50.911649658203125,-0.11679999530315399,-0.010300000198185444,0.004699999932199717
1702338792541913600,51.01091357421875,-0.10700000077486038,-0.00019999999494757503,0.004699999932199717
1702338792641176000,51.11017602539062,-0.10700000077486038,0.008999999612569809,-0.004299999680370092
1702338792740440000,51.209440185546875,-0.08739999681711197,-0.0009999999310821295,0.01489999983459711
1702338792839702500,51.30870263671875,-0.08739999681711197,-0.010599999688565731,-0.0044999998062849045
1702338792938966800,51.407966796875,-0.06769999861717224,0.018299998715519905,-0.004699999932199717
1702338793038229200,51.507229248046876,-0.05790000036358833,0.007999999448657036,0.0050999997183680534
1702338793137493200,51.6064931640625,-0.04809999838471413,0.007699999958276749,-0.014800000004470348
1702338793236755700,51.705755615234374,-0.04809999838471413,-0.0026000000070780516,-0.004600000102072954
1702338793336018200,51.80501806640625,-0.03830000013113022,-0.002899999963119626,-0.014399999752640724
1702338793435282400,51.90428247070312,-0.03830000013113022,0.006300000008195639,-0.01489999983459711
1702338793534545000,52.003544921875,-0.018699999898672104,0.005799999926239252,-0.004699999932199717
1702338793633809000,52.10280883789063,-0.018699999898672104,-0.003599999938160181,0.005200000014156103
1702338793733071400,52.2020712890625,-0.018699999898672104,0.0058999997563660145,-0.003999999724328518
1702338793832335400,52.30133544921875,-0.008899999782443047,0.005799999926239252,-0.003000000026077032
1702338793931598000,52.40059814453125,-0.018699999898672104,0.006799999624490738,-0.011899999342858791
1702338794030862000,52.499862060546874,-0.008899999782443047,0.007400000002235174,-0.011899999342858791
1702338794130124500,52.59912451171875,-0.008899999782443047,0.0064999996684491634,-0.002199999988079071
1702338794229388500,52.69838842773437,0.0007999999797903001,-0.0030999998562037945,-0.0024999999441206455
1702338794328651000,52.797651123046876,-0.008899999782443047,0.006599999964237213,-0.011899999342858791
1702338794427915300,52.89691528320313,-0.018699999898672104,-0.0026000000070780516,-0.012299999594688416
1702338794527176200,52.99617626953125,-0.018699999898672104,0.007199999876320362,-0.011399999260902405
1702338794626440200,53.09544018554688,-0.03830000013113022,0.007699999958276749,-0.00139999995008111
1702338794725704200,53.1947041015625,-0.02850000001490116,0.0072999997064471245,-0.00139999995008111
1702338794824966700,53.293966552734375,-0.05790000036358833,-0.002199999988079071,-0.00139999995008111
1702338794924230700,53.39323071289063,-0.05790000036358833,-0.002099999925121665,0.008299999870359898
1702338795023493400,53.492493408203124,-0.06769999861717224,0.007400000002235174,-0.0009999999310821295
1702338795122757400,53.59175732421875,-0.07750000059604645,-0.002099999925121665,-0.00039999998989515007
1702338795222019800,53.69101977539062,-0.07750000059604645,-0.011599999852478504,0
1702338795321283800,53.790283935546874,-0.09719999879598618,-0.002300000051036477,-0.00009999999747378752
1702338795420546300,53.88954638671875,-0.10700000077486038,-0.0018999999156221747,0.00969999935477972
1702338795519809000,53.98880908203125,-0.10700000077486038,-0.0015999999595806003,0.00969999935477972
1702338795619073000,54.088072998046876,-0.10700000077486038,-0.00139999995008111,0.00930000003427267
1702338795718335500,54.18733544921875,-0.10700000077486038,-0.011099999770522118,-0.0005999999702908099
1702338795817599500,54.286599609375,-0.11679999530315399,0.008799999952316284,0.009599999524652958
1702338795916862000,54.38586206054688,-0.10700000077486038,-0.010699999518692493,-0.00039999998989515007
1702338796016124400,54.48512451171875,-0.11679999530315399,-0.00039999998989515007,-0.010300000198185444
1702338796115388700,54.584388671875,-0.11679999530315399,-0.00029999998514540493,0.008999999612569809
1702338796214652700,54.68365258789063,-0.08739999681711197,-0.00009999999747378752,-0.010900000110268593
1702338796313915100,54.7829150390625,-0.08739999681711197,-0.00019999999494757503,0.007899999618530273
1702338796413179100,54.88217919921875,-0.08739999681711197,-0.00019999999494757503,-0.0018999999156221747
1702338796512441600,54.98144165039062,-0.06780000030994415,-0.009800000116229057,-0.002099999925121665
1702338796611704300,55.080704345703126,-0.09719999879598618,-0.009999999776482582,0.0072999997064471245
1702338796710968300,55.17996826171875,-0.08739999681711197,0.009099999442696571,0.017099998891353607
1702338796810232300,55.279232421875,-0.08739999681711197,-0.00039999998989515007,0.007699999958276749
1702338796909494800,55.378494873046876,-0.08739999681711197,-0.0004999999655410647,-0.002099999925121665
1702338797008758800,55.4777587890625,-0.08739999681711197,-0.010199999436736107,-0.001999999862164259
1702338797108021500,55.577021484375,-0.10700000077486038,-0.010599999688565731,0.007499999832361937
1702338797207284000,55.67628393554688,-0.09719999879598618,-0.010599999688565731,-0.012199999764561653
1702338797306546400,55.77554638671875,-0.08739999681711197,-0.00039999998989515007,-0.001999999862164259
1702338797405810400,55.874810546875,-0.09719999879598618,-0.000699999975040555,-0.001999999862164259
1702338797505073000,55.97407299804688,-0.07759999483823776,-0.010900000110268593,0.007699999958276749
1702338797604337200,56.073337158203124,-0.07759999483823776,0.008599999360740185,0.008100000210106373
1702338797703601200,56.17260107421875,-0.07750000059604645,-0.011099999770522118,0.007999999448657036
1702338797802863600,56.27186352539063,-0.06769999861717224,0.008200000040233135,0.007699999958276749
1702338797902126000,56.3711259765625,-0.05790000036358833,-0.0015999999595806003,0.007599999662488699
1702338798001390000,56.47039013671875,-0.04809999838471413,-0.011599999852478504,-0.0017999999690800905
1702338798100652500,56.56965258789062,-0.04809999838471413,-0.002300000051036477,-0.0016999999061226845
1702338798199916800,56.668916748046875,-0.02850000001490116,0.00699999975040555,-0.002099999925121665
1702338798299179300,56.76817919921875,-0.04809999838471413,-0.0032999999821186066,0.0071000000461936
1702338798398443300,56.867443359375,-0.02850000001490116,-0.00279999990016222,-0.0026000000070780516
1702338798497707300,56.966707275390625,-0.018699999898672104,-0.003000000026077032,-0.012399999424815178
1702338798596968200,57.06596826171875,-0.018699999898672104,0.0072999997064471245,-0.0023999998811632395
1702338798696232400,57.165232421875,-0.008899999782443047,0.007199999876320362,-0.011699999682605267
1702338798795495000,57.26449487304688,-0.008899999782443047,-0.012000000104308128,0.007899999618530273
1702338798894759000,57.363759033203124,-0.008899999782443047,-0.011899999342858791,-0.0013000000035390258
1702338798994021400,57.463021484375,-0.02850000001490116,0.00699999975040555,0.007799999788403511
1702338799093285400,57.56228540039063,-0.018699999898672104,0.007199999876320362,-0.0013000000035390258
1702338799192547800,57.6615478515625,-0.008899999782443047,-0.002199999988079071,-0.011500000022351742
1702338799291812000,57.76081201171875,-0.008899999782443047,-0.012199999764561653,-0.00279999990016222
1702338799391074600,57.86007446289062,-0.03830000013113022,-0.0026000000070780516,-0.012000000104308128
1702338799490338600,57.959338623046875,-0.018699999898672104,0.006899999920278788,-0.011500000022351742
1702338799589601000,58.05860107421875,-0.02850000001490116,0.007899999618530273,-0.0011999999405816197
1702338799688863500,58.157863525390624,-0.018699999898672104,0.008299999870359898,-0.001500000013038516
1702338799788127700,58.25712768554688,-0.05790000036358833,-0.0017999999690800905,-0.0007999999797903001
1702338799887390200,58.35639013671875,-0.03830000013113022,-0.0017999999690800905,-0.0009999999310821295
1702338799986654200,58.455654296875,-0.05790000036358833,-0.0018999999156221747,-0.0004999999655410647
1702338800085916700,58.55491674804688,-0.05790000036358833,0.007899999618530273,0.008700000122189522
1702338800185180700,58.6541806640625,-0.08739999681711197,-0.011699999682605267,-0.0009999999310821295
1702338800284443400,58.753443359375,-0.06769999861717224,-0.001500000013038516,-0.0009999999310821295
1702338800383707400,58.85270727539063,-0.09719999879598618,-0.0016999999061226845,0.008999999612569809
1702338800482969900,58.951969970703125,-0.08739999681711197,0.007899999618530273,-0.010300000198185444
1702338800582233900,59.05123388671875,-0.11679999530315399,-0.0018999999156221747,0.008999999612569809
1702338800681496300,59.15049633789062,-0.10700000077486038,-0.0015999999595806003,0.00930000003427267
1702338800780760600,59.249760498046875,-0.1363999992609024,-0.010999999940395355,0.009200000204145908
1702338800880023000,59.34902294921875,-0.11679999530315399,-0.020899999886751175,-0.010799999348819256
1702338800979287000,59.448287109375,-0.1265999972820282,-0.011500000022351742,-0.0008999999845400453
1702338801078549500,59.54754956054688,-0.1265999972820282,0.017899999395012856,-0.0008999999845400453
1702338801177812000,59.64681201171875,-0.11679999530315399,0.007999999448657036,-0.0009999999310821295
1702338801277076000,59.746075927734374,-0.09719999879598618,-0.0015999999595806003,0.008599999360740185
1702338801376338700,59.84533862304688,-0.10700000077486038,0.008100000210106373,0.009099999442696571
1702338801475602700,59.94460278320312,-0.11679999530315399,-0.0010999999940395355,0.009499999694526196
1702338801574865200,60.043865234375,-0.07759999483823776,-0.0010999999940395355,0.009099999442696571
1702338801674129200,60.14312915039063,-0.10700000077486038,-0.0009999999310821295,-0.0004999999655410647
1702338801773391600,60.2423916015625,-0.09719999879598618,-0.010999999940395355,-0.010099999606609344
1702338801872656000,60.34165576171875,-0.09719999879598618,0.00839999970048666,-0.0004999999655410647
1702338801971918300,60.44091845703125,-0.08739999681711197,-0.0009999999310821295,-0.000699999975040555
1702338802071182300,60.540182373046875,-0.11679999530315399,-0.0010999999940395355,0.009099999442696571
1702338802170444800,60.63944482421875,-0.09719999879598618,-0.02029999904334545,-0.009599999524652958
1702338802269707300,60.738707275390624,-0.10700000077486038,-0.010099999606609344,0.009999999776482582
1702338802368971500,60.837971435546876,-0.09719999879598618,-0.020099999383091927,0.00989999994635582
1702338802468234000,60.93723388671875,-0.11679999530315399,-0.00019999999494757503,0.01979999989271164
1702338802567498000,61.036498046875,-0.11679999530315399,0.00969999935477972,0.009599999524652958
1702338802666760400,61.13576049804688,-0.08739999681711197,-0.01979999989271164,0.009399999864399433
1702338802766024400,61.2350244140625,-0.09719999879598618,-0.00029999998514540493,0.00969999935477972
1702338802865287000,61.334286865234375,-0.07759999483823776,-0.009800000116229057,0.009599999524652958
1702338802964551200,61.43355126953125,-0.09719999879598618,0.00009999999747378752,0.009800000116229057
1702338803063813600,61.532813720703125,-0.07759999483823776,0.00029999998514540493,0.019299998879432678
1702338803163077600,61.63207763671875,-0.06780000030994415,0.010099999606609344,0.019600000232458115
1702338803262340000,61.73134008789062,-0.03830000013113022,-0.009399999864399433,-0.00029999998514540493
1702338803361604000,61.83060400390625,-0.06780000030994415,-0.00009999999747378752,-0.00009999999747378752
1702338803460866800,61.92986669921875,-0.02850000001490116,-0.00029999998514540493,-0.00019999999494757503
1702338803560130800,62.029130859375,-0.03830000013113022,0.009099999442696571,0.009099999442696571
1702338803659393300,62.128393310546876,-0.018699999898672104,0.008599999360740185,-0.00969999935477972
1702338803758655700,62.22765576171875,-0.018699999898672104,-0.0013000000035390258,-0.00039999998989515007
1702338803857919700,62.326919677734374,-0.008899999782443047,-0.0013000000035390258,-0.00969999935477972
1702338803957182500,62.42618237304688,-0.02850000001490116,0.01769999973475933,0.009800000116229057
1702338804056446500,62.52544653320312,-0.008899999782443047,-0.0023999998811632395,0.017799999564886093
1702338804155709000,62.624708984375,-0.008899999782443047,-0.00279999990016222,0.007400000002235174
1702338804254973000,62.72397290039063,-0.008899999782443047,0.0058999997563660145,-0.0016999999061226845
1702338804354235400,62.8232353515625,0.0007999999797903001,0.0052999998442828655,-0.001500000013038516
1702338804453497900,62.92249780273438,0.0007999999797903001,-0.013399999588727951,-0.0004999999655410647
1702338804552762000,63.02176220703125,-0.018699999898672104,0.004900000058114529,0.009099999442696571
1702338804652026000,63.121026123046875,-0.018699999898672104,-0.004299999680370092,-0.00009999999747378752
1702338804751288600,63.22028857421875,-0.018699999898672104,0.005499999970197678,0
1702338804850551000,63.31955102539062,-0.02850000001490116,-0.013700000010430813,0.00019999999494757503
1702338804949815000,63.41881494140625,-0.05790000036358833,-0.00419999985024333,0.009999999776482582
1702338805049077800,63.51807788085937,-0.06769999861717224,-0.004299999680370092,-0.008899999782443047
1702338805148341800,63.617341796875,-0.06769999861717224,0.005399999674409628,0.0004999999655410647
1702338805247604200,63.71660424804688,-0.07750000059604645,-0.023799998685717583,0.0005999999702908099
1702338805346868200,63.8158681640625,-0.08729999512434006,-0.004399999976158142,0.0007999999797903001
1702338805446130700,63.915130615234375,-0.08729999512434006,0.0058999997563660145,0.000699999975040555
1702338805545393200,64.01439306640626,-0.10689999908208847,-0.004299999680370092,-0.00839999970048666
1702338805644657400,64.11365747070313,-0.10689999908208847,-0.004799999762326479,0.0009999999310821295
1702338805743919900,64.212919921875,-0.11669999361038208,0.0050999997183680534,0.000699999975040555
1702338805843183900,64.31218383789063,-0.10689999908208847,-0.0139999995008111,0.0004999999655410647
1702338805942447900,64.41144775390624,-0.1264999955892563,-0.0139999995008111,0.010599999688565731
1702338806041710300,64.51071044921875,-0.10689999908208847,-0.013700000010430813,-0.00930000003427267
1702338806140973000,64.60997314453125,-0.11669999361038208,-0.003599999938160181,0.010599999688565731
1702338806240235500,64.70923559570312,-0.11679999530315399,-0.003399999812245369,0.010599999688565731
1702338806339499500,64.80849951171875,-0.1265999972820282,-0.012899999506771564,0.000699999975040555
1702338806438762000,64.90776196289063,-0.11679999530315399,-0.012799999676644802,0.00009999999747378752
1702338806538026000,65.00702587890625,-0.1265999972820282,-0.01269999984651804,0.00029999998514540493
1702338806637288700,65.10628881835937,-0.1363999992609024,-0.0026000000070780516,0.009999999776482582
1702338806736552700,65.205552734375,-0.10700000077486038,-0.012199999764561653,0.019099999219179153
1702338806835815200,65.30481518554687,-0.11679999530315399,-0.012600000016391277,-0.010799999348819256
1702338806935079200,65.4040791015625,-0.10700000077486038,-0.002300000051036477,-0.010699999518692493
1702338807034341600,65.50334155273437,-0.08729999512434006,-0.001999999862164259,0.008799999952316284
1702338807133606000,65.60260595703124,-0.10700000077486038,-0.002099999925121665,0.008700000122189522
1702338807232868400,65.70186840820313,-0.10700000077486038,-0.021199999377131462,-0.010999999940395355
1702338807332132400,65.80113232421876,-0.10700000077486038,-0.02070000022649765,0.008499999530613422
1702338807431394800,65.90039477539062,-0.10700000077486038,0.00839999970048666,-0.010900000110268593
1702338807530658800,65.99965893554688,-0.09719999879598618,-0.010799999348819256,-0.0007999999797903001
1702338807629921300,66.09892138671874,-0.1265999972820282,-0.010999999940395355,-0.0011999999405816197
1702338807729184000,66.19818408203125,-0.09719999879598618,-0.001500000013038516,-0.001999999862164259
1702338807828448000,66.29744799804688,-0.10700000077486038,-0.0017999999690800905,0.008100000210106373
1702338807927710500,66.39671044921874,-0.08739999681711197,-0.01119999960064888,-0.001999999862164259
1702338808026974500,66.49597436523437,-0.05790000036358833,-0.00139999995008111,-0.01209999993443489
1702338808126237000,66.59523681640626,-0.06769999861717224,0.01759999990463257,-0.001500000013038516
1702338808225501200,66.69450122070313,-0.05790000036358833,-0.0017999999690800905,0.017500000074505806
1702338808324763600,66.793763671875,-0.04809999838471413,-0.00139999995008111,-0.011399999260902405
1702338808424027600,66.89302758789063,-0.02850000001490116,-0.0013000000035390258,0.008999999612569809
1702338808523290000,66.9922900390625,-0.02850000001490116,0.008499999530613422,-0.010300000198185444
1702338808622554000,67.09155419921875,-0.018699999898672104,-0.0010999999940395355,-0.0010999999940395355
1702338808721816800,67.19081689453125,-0.018699999898672104,0.008100000210106373,-0.010799999348819256
1702338808821079300,67.29007934570312,-0.03830000013113022,-0.011399999260902405,-0.0007999999797903001
1702338808920343300,67.38934326171875,-0.008899999782443047,-0.001500000013038516,-0.0010999999940395355
1702338809019605800,67.48860571289063,-0.008899999782443047,-0.002099999925121665,-0.010699999518692493
1702338809118869800,67.58786987304687,-0.008899999782443047,-0.001999999862164259,-0.0009999999310821295
1702338809218132200,67.68713232421875,-0.008899999782443047,0.016899999231100082,-0.0011999999405816197
1702338809317396500,67.786396484375,0.0007999999797903001,0.0058999997563660145,-0.0011999999405816197
1702338809416659000,67.88565893554687,0.0007999999797903001,0.0058999997563660145,0.00839999970048666
1702338809515923000,67.9849228515625,-0.008899999782443047,-0.013700000010430813,0.007199999876320362
1702338809615185400,68.08418530273437,-0.008899999782443047,0.006199999712407589,-0.012600000016391277
1702338809714449400,68.18344946289062,-0.018699999898672104,-0.0032999999821186066,-0.002300000051036477
1702338809813712100,68.28271215820313,-0.02850000001490116,-0.0030999998562037945,-0.0018999999156221747
1702338809912976100,68.38197607421876,-0.03830000013113022,0.016499999910593033,0.007899999618530273
1702338810012238600,68.48123852539062,-0.05790000036358833,-0.0031999999191612005,-0.00139999995008111
1702338810111501000,68.5805009765625,-0.05790000036358833,-0.0031999999191612005,-0.0009999999310821295
1702338810210765000,68.67976513671876,-0.07750000059604645,0.0064999996684491634,-0.010999999940395355
1702338810310027800,68.77902783203125,-0.06769999861717224,-0.0030999998562037945,-0.010300000198185444
1702338810409291800,68.87829174804688,-0.08729999512434006,-0.0030999998562037945,-0.0007999999797903001
1702338810508554200,68.97755419921874,-0.10689999908208847,-0.0030999998562037945,-0.0004999999655410647
1702338810607818200,69.076818359375,-0.09709999710321426,-0.0031999999191612005,0.009399999864399433
1702338810707080700,69.17608081054688,-0.09709999710321426,-0.012999999336898327,-0.00039999998989515007
1702338810806345000,69.27534497070313,-0.10689999908208847,-0.0031999999191612005,-0.010300000198185444
1702338810905607400,69.374607421875,-0.10689999908208847,0.006000000052154064,-0.010199999436736107
1702338811004871400,69.47387133789063,-0.11669999361038208,0.005699999630451202,-0.010300000198185444
1702338811104134000,69.5731337890625,-0.11669999361038208,-0.0038999998942017555,-0.00029999998514540493
1702338811203398000,69.67239794921875,-0.10689999908208847,-0.013299999758601189,0.009099999442696571
1702338811302660400,69.77166040039063,-0.1462000012397766,-0.003399999812245369,-0.010599999688565731
1702338811401923000,69.87092309570312,-0.11669999361038208,-0.003599999938160181,-0.0009999999310821295
1702338811501187000,69.97018701171875,-0.11679999530315399,0.006399999838322401,-0.0005999999702908099
1702338811600449500,70.06944946289063,-0.10689999908208847,-0.003399999812245369,-0.009999999776482582
1702338811699713500,70.16871362304687,-0.10689999908208847,-0.013199999928474426,-0.010099999606609344
1702338811798976000,70.26797607421875,-0.10689999908208847,-0.0032999999821186066,0.009599999524652958
1702338811898240300,70.367240234375,-0.11679999530315399,-0.002899999963119626,0.019600000232458115
1702338811997502700,70.46650268554687,-0.11679999530315399,-0.00279999990016222,0.009800000116229057
1702338812096766700,70.5657666015625,-0.1265999972820282,-0.012299999594688416,0.00019999999494757503
1702338812196029200,70.665029296875,-0.11679999530315399,-0.012199999764561653,-0.00019999999494757503
1702338812295293200,70.76429321289062,-0.09719999879598618,0.007899999618530273,-0.00029999998514540493
1702338812394555600,70.8635556640625,-0.1265999972820282,-0.01119999960064888,-0.010199999436736107
1702338812493818400,70.962818359375,-0.10700000077486038,-0.0009999999310821295,-0.000699999975040555
1702338812593082400,71.06208227539062,-0.11679999530315399,0.008299999870359898,-0.0004999999655410647
1702338812692344800,71.1613447265625,-0.10700000077486038,-0.010799999348819256,-0.0011999999405816197
1702338812791607300,71.26060717773437,-0.11679999530315399,-0.011299999430775642,-0.010999999940395355
1702338812890871300,71.35987133789062,-0.08739999681711197,-0.0016999999061226845,-0.011099999770522118
1702338812990135600,71.45913549804688,-0.07750000059604645,-0.001500000013038516,-0.0013000000035390258
1702338813089398000,71.55839794921874,-0.07750000059604645,-0.011599999852478504,0.017099998891353607
1702338813188662000,71.657662109375,-0.07750000059604645,0.007699999958276749,-0.011799999512732029
1702338813287924500,71.75692456054688,-0.05790000036358833,0.00699999975040555,-0.011500000022351742
1702338813387187000,71.85618701171875,-0.04809999838471413,-0.002300000051036477,0.007899999618530273
1702338813486451200,71.955451171875,-0.02850000001490116,-0.002300000051036477,-0.0023999998811632395
1702338813585713700,72.05471362304688,-0.02850000001490116,-0.0018999999156221747,0.0071000000461936
1702338813684977700,72.15397778320313,-0.018699999898672104,0.0072999997064471245,0.006599999964237213
1702338813784240000,72.253240234375,0.0007999999797903001,-0.012000000104308128,-0.0026000000070780516
1702338813883504000,72.35250415039063,-0.018699999898672104,-0.003000000026077032,0.007199999876320362
1702338813982766600,72.4517666015625,-0.008899999782443047,-0.012600000016391277,-0.01269999984651804
1702338814082029300,72.551029296875,-0.008899999782443047,0.005799999926239252,-0.01249999925494194
1702338814181293300,72.65029321289063,0.0007999999797903001,-0.0044999998062849045,-0.011799999512732029
1702338814280555800,72.7495556640625,-0.018699999898672104,-0.003999999724328518,0.008599999360740185
1702338814379819800,72.84881982421875,-0.008899999782443047,-0.013499999418854713,-0.010799999348819256
1702338814479083800,72.94808374023438,-0.008899999782443047,-0.002899999963119626,0.009399999864399433
1702338814578346500,73.04734643554687,0.0007999999797903001,-0.002699999837204814,-0.010300000198185444
1702338814677609000,73.14660888671875,-0.018699999898672104,0.0064999996684491634,0.008700000122189522
1702338814776873000,73.245873046875,-0.02850000001490116,-0.0030999998562037945,-0.0008999999845400453
1702338814876135400,73.34513549804687,-0.02850000001490116,0.0066999997943639755,-0.010099999606609344
1702338814975399400,73.4443994140625,-0.04809999838471413,-0.013399999588727951,-0.009999999776482582
1702338815074662100,73.543662109375,-0.05790000036358833,-0.013299999758601189,0.009599999524652958
1702338815173926100,73.64292602539062,-0.07750000059604645,-0.003700000001117587,-0.00969999935477972
1702338815273188600,73.74218872070313,-0.07750000059604645,-0.003499999875202775,0.00989999994635582
1702338815372451000,73.841451171875,-0.08729999512434006,-0.012899999506771564,0.00969999935477972
1702338815471715000,73.94071508789062,-0.08729999512434006,-0.012999999336898327,-0.00019999999494757503
1702338815570977500,74.0399775390625,-0.10689999908208847,-0.0031999999191612005,0.00969999935477972
1702338815670241800,74.13924169921874,-0.08729999512434006,-0.013100000098347664,-0.009499999694526196
1702338815769504300,74.23850415039063,-0.09709999710321426,-0.012799999676644802,0.01979999989271164
1702338815868768300,74.33776831054688,-0.09709999710321426,-0.002699999837204814,0
1702338815968030700,74.43703076171874,-0.1265999972820282,-0.012399999424815178,0.00969999935477972
1702338816067294700,74.53629467773438,-0.10700000077486038,-0.0023999998811632395,0.019500000402331352
1702338816166557400,74.63555737304688,-0.10700000077486038,-0.012299999594688416,0
1702338816265820000,74.73481982421875,-0.11679999530315399,-0.0023999998811632395,-0.00019999999494757503
1702338816365084000,74.834083984375,-0.11679999530315399,-0.002099999925121665,-0.00009999999747378752
1702338816464346400,74.93334643554688,-0.11679999530315399,-0.0015999999595806003,-0.00029999998514540493
1702338816563610400,75.0326103515625,-0.1265999972820282,-0.011099999770522118,0.009399999864399433
1702338816662873000,75.131873046875,-0.11679999530315399,0.00839999970048666,-0.0004999999655410647
1702338816762137000,75.23113720703125,-0.10700000077486038,-0.011299999430775642,0.008499999530613422
1702338816861401000,75.33040112304687,-0.10700000077486038,-0.011299999430775642,-0.010900000110268593
1702338816960663600,75.42966357421875,-0.11679999530315399,-0.010699999518692493,-0.0015999999595806003
1702338817059926000,75.52892602539063,-0.10700000077486038,-0.000699999975040555,0.00839999970048666
1702338817159190300,75.62819018554687,-0.09719999879598618,0.008999999612569809,-0.00139999995008111
1702338817258452700,75.72745263671875,-0.11679999530315399,-0.010499999858438969,0.008299999870359898
1702338817357716700,75.826716796875,-0.09719999879598618,-0.01119999960064888,0.00839999970048666
1702338817456979200,75.92597924804687,-0.11679999530315399,-0.01119999960064888,0.008999999612569809
1702338817556243200,76.0252431640625,-0.08739999681711197,0.00839999970048666,0.01769999973475933
1702338817655505700,76.12450561523437,-0.11679999530315399,-0.0008999999845400453,-0.0016999999061226845
1702338817754768400,76.22376831054687,-0.10700000077486038,-0.0008999999845400453,0.007799999788403511
1702338817854032400,76.32303247070313,-0.08739999681711197,-0.0010999999940395355,-0.001500000013038516
1702338817953294800,76.422294921875,-0.06769999861717224,-0.0009999999310821295,0.017799999564886093
1702338818052558800,76.52155883789062,-0.06769999861717224,-0.0009999999310821295,-0.002099999925121665
1702338818151822800,76.62082275390625,-0.04809999838471413,-0.0005999999702908099,-0.011599999852478504
1702338818251085600,76.72008544921874,-0.05790000036358833,-0.0005999999702908099,-0.011599999852478504
1702338818350348000,76.81934814453125,-0.04809999838471413,-0.010699999518692493,-0.01119999960064888
1702338818449612000,76.91861206054688,-0.04809999838471413,-0.0010999999940395355,-0.011399999260902405
1702338818548874500,77.01787451171874,-0.02850000001490116,-0.0007999999797903001,-0.0016999999061226845
1702338818648138500,77.11713842773437,-0.018699999898672104,-0.0013000000035390258,0.007999999448657036
1702338818747401000,77.21640087890626,-0.008899999782443047,-0.001500000013038516,-0.010999999940395355
1702338818846663700,77.31566357421875,-0.018699999898672104,-0.0016999999061226845,-0.00139999995008111
1702338818945927700,77.414927734375,-0.018699999898672104,-0.011599999852478504,-0.0007999999797903001
1702338819045190100,77.51419018554688,0.0007999999797903001,0.007400000002235174,-0.010599999688565731
1702338819144454100,77.6134541015625,-0.008899999782443047,-0.002199999988079071,-0.009499999694526196
1702338819243716600,77.71271655273438,-0.018699999898672104,0.00699999975040555,-0.0005999999702908099
1702338819342980900,77.81198095703125,-0.008899999782443047,0.006199999712407589,-0.0009999999310821295
1702338819442243300,77.91124340820312,-0.018699999898672104,-0.003499999875202775,-0.0016999999061226845
1702338819541507300,78.01050732421875,-0.018699999898672104,0.0058999997563660145,-0.002699999837204814
1702338819640769800,78.10976977539063,-0.008899999782443047,0.006199999712407589,0.00839999970048666
1702338819740033800,78.20903369140625,-0.018699999898672104,-0.013399999588727951,-0.0008999999845400453
1702338819839296500,78.30829663085937,-0.02850000001490116,-0.003399999812245369,-0.000699999975040555
1702338819938560500,78.407560546875,-0.02850000001490116,0.006300000008195639,0.008499999530613422
1702338820037823000,78.50682299804687,-0.018699999898672104,-0.0030999998562037945,-0.0011999999405816197
1702338820137085400,78.60608544921875,-0.03830000013113022,-0.013100000098347664,-0.0010999999940395355
1702338820236349400,78.70534936523437,-0.06769999861717224,0.006399999838322401,-0.0013000000035390258
1702338820335612000,78.80461181640625,-0.06769999861717224,0.01640000008046627,0.007999999448657036
1702338820434876200,78.90387622070313,-0.06769999861717224,0.006300000008195639,-0.001500000013038516
1702338820534138600,79.003138671875,-0.08729999512434006,-0.013499999418854713,-0.01119999960064888
1702338820633401000,79.10240112304687,-0.09709999710321426,0.006300000008195639,0.008499999530613422
1702338820732665000,79.2016650390625,-0.09709999710321426,-0.003399999812245369,0.008299999870359898
1702338820831929000,79.30092919921876,-0.08729999512434006,-0.013199999928474426,-0.00139999995008111
1702338820931191800,79.40019189453125,-0.11669999361038208,-0.013199999928474426,-0.001500000013038516
1702338821030454300,79.49945434570313,-0.10689999908208847,-0.012999999336898327,-0.012000000104308128
1702338821129718300,79.59871826171874,-0.11679999530315399,-0.012999999336898327,-0.011599999852478504
1702338821228982300,79.69798217773437,-0.11679999530315399,-0.0030999998562037945,-0.001500000013038516
1702338821328244700,79.79724462890626,-0.1265999972820282,-0.00279999990016222,-0.011099999770522118
1702338821427507500,79.89650756835937,-0.1265999972820282,-0.002699999837204814,-0.010999999940395355
1702338821526771500,79.995771484375,-0.11679999530315399,-0.01209999993443489,-0.010799999348819256
1702338821626034000,80.09503393554688,-0.1462000012397766,-0.0017999999690800905,0.008799999952316284
1702338821725296400,80.19429638671875,-0.11679999530315399,-0.0011999999405816197,-0.0015999999595806003
1702338821824560400,80.29356030273438,-0.1265999972820282,-0.01119999960064888,0.008200000040233135
1702338821923822800,80.39282275390624,-0.10700000077486038,-0.0013000000035390258,0.008299999870359898
1702338822023087000,80.49208715820312,-0.11679999530315399,-0.0009999999310821295,-0.0013000000035390258
1702338822122349600,80.591349609375,-0.10700000077486038,-0.010699999518692493,0.017999999225139618
1702338822221613600,80.69061352539063,-0.09719999879598618,-0.010799999348819256,0.007899999618530273
1702338822320876000,80.7898759765625,-0.1265999972820282,-0.0008999999845400453,0.01769999973475933
1702338822420140000,80.88914013671875,-0.1265999972820282,-0.010499999858438969,-0.002300000051036477
1702338822519402800,80.98840283203126,-0.10700000077486038,-0.0004999999655410647,0.0066999997943639755
1702338822618666800,81.08766674804687,-0.11679999530315399,-0.010599999688565731,-0.0030999998562037945
1702338822717929200,81.18692919921875,-0.08739999681711197,-0.000699999975040555,-0.0024999999441206455
1702338822817193200,81.28619311523437,-0.10700000077486038,-0.010199999436736107,-0.0023999998811632395
1702338822916455700,81.38545556640625,-0.09719999879598618,0.009200000204145908,-0.0026000000070780516
1702338823015718400,81.48471850585938,-0.08739999681711197,-0.009599999524652958,-0.0023999998811632395
1702338823114982400,81.583982421875,-0.08739999681711197,0,-0.0017999999690800905
1702338823214244900,81.68324487304687,-0.057999998331069946,0,-0.011899999342858791
1702338823313508900,81.7825087890625,-0.06780000030994415,-0.00019999999494757503,-0.001999999862164259
1702338823412771300,81.88177124023437,-0.03830000013113022,-0.0005999999702908099,-0.012000000104308128
1702338823512035600,81.98103564453125,-0.03830000013113022,-0.0005999999702908099,0.007400000002235174
1702338823611298000,82.08029809570313,-0.02850000001490116,0.008799999952316284,-0.00279999990016222
1702338823710562000,82.17956201171874,-0.02850000001490116,0.008700000122189522,-0.002099999925121665
1702338823809824500,82.27882446289063,-0.008899999782443047,0.008100000210106373,-0.0023999998811632395
1702338823909088500,82.37808862304688,-0.018699999898672104,-0.0015999999595806003,0.007999999448657036
1702338824008351000,82.47735107421875,-0.018699999898672104,-0.0009999999310821295,-0.010799999348819256
1702338824107615200,82.576615234375,-0.008899999782443047,-0.010599999688565731,0.007899999618530273
1702338824206877700,82.67587768554688,0.0007999999797903001,-0.000699999975040555,0.008299999870359898
1702338824306140200,82.77514013671875,-0.008899999782443047,0.009599999524652958,0.008499999530613422
1702338824405404200,82.87440405273438,0.0007999999797903001,-0.0009999999310821295,-0.011099999770522118
1702338824504666600,82.97366650390624,0.0007999999797903001,0.007799999788403511,0.008499999530613422
1702338824603931000,83.07293090820312,-0.018699999898672104,-0.012799999676644802,-0.0015999999595806003
1702338824703193300,83.172193359375,0.0007999999797903001,-0.0024999999441206455,-0.0015999999595806003
1702338824802457300,83.27145727539063,-0.02850000001490116,-0.011799999512732029,0.008200000040233135
1702338824901719800,83.3707197265625,-0.008899999782443047,0.006799999624490738,0.008299999870359898
1702338825000983800,83.46998388671875,-0.02850000001490116,0.0064999996684491634,-0.010799999348819256
1702338825100246300,83.56924633789062,-0.04809999838471413,0.006300000008195639,-0.010699999518692493
1702338825199510500,83.66851049804687,-0.06769999861717224,0.006000000052154064,-0.0009999999310821295
1702338825298773000,83.76777294921875,-0.06769999861717224,0.006300000008195639,-0.0007999999797903001
1702338825398037000,83.867037109375,-0.08729999512434006,-0.003000000026077032,-0.00039999998989515007
1702338825497299500,83.96629956054687,-0.08729999512434006,-0.022099999710917473,0.009399999864399433
1702338825596562000,84.06556201171875,-0.09709999710321426,-0.002699999837204814,0.009599999524652958
1702338825695826200,84.164826171875,-0.10700000077486038,-0.0023999998811632395,0.00969999935477972
1702338825795088600,84.26408862304687,-0.09719999879598618,0.007599999662488699,0.00989999994635582
1702338825894352600,84.3633525390625,-0.1265999972820282,0.007599999662488699,0.00989999994635582
1702338825993615000,84.46261499023437,-0.09719999879598618,-0.001500000013038516,-0.00009999999747378752
1702338826092879000,84.56187915039062,-0.11679999530315399,-0.0013000000035390258,0.009800000116229057
1702338826192141800,84.66114184570313,-0.11679999530315399,-0.0016999999061226845,-0.00009999999747378752
1702338826291405800,84.76040576171874,-0.10700000077486038,-0.011599999852478504,0.00989999994635582
1702338826390668300,84.85966821289063,-0.1265999972820282,-0.0016999999061226845,-0.00989999994635582
1702338826489932300,84.95893237304688,-0.1265999972820282,-0.0015999999595806003,0.00009999999747378752
1702338826589194800,85.05819482421875,-0.11679999530315399,0.008200000040233135,0.009800000116229057
1702338826688457200,85.15745727539063,-0.1265999972820282,-0.0016999999061226845,0.00019999999494757503
1702338826787721500,85.25672143554688,-0.09719999879598618,-0.0015999999595806003,0.00019999999494757503
1702338826886984000,85.35598388671875,-0.11679999530315399,-0.0017999999690800905,-0.009200000204145908
1702338826986248000,85.455248046875,-0.10700000077486038,-0.011699999682605267,-0.009099999442696571
1702338827085510400,85.55451049804688,-0.11679999530315399,-0.011500000022351742,0.010499999858438969
1702338827184774400,85.6537744140625,-0.10700000077486038,-0.0017999999690800905,0.010199999436736107
1702338827284037000,85.753037109375,-0.11679999530315399,0.008200000040233135,0.020099999383091927
1702338827383301000,85.85230102539063,-0.09719999879598618,-0.0009999999310821295,0.0007999999797903001
1702338827482563600,85.9515634765625,-0.08739999681711197,0.008899999782443047,0.0005999999702908099
1702338827581827600,86.05082763671875,-0.10700000077486038,-0.000699999975040555,0.00019999999494757503
1702338827681090000,86.15009008789062,-0.09719999879598618,-0.0005999999702908099,0.010400000028312206
1702338827780354300,86.24935424804687,-0.11679999530315399,-0.01979999989271164,0.000699999975040555
1702338827879616800,86.34861669921875,-0.08739999681711197,0,0.010300000198185444
1702338827978880800,86.447880859375,-0.10700000077486038,0,0.0004999999655410647
1702338828078143200,86.54714331054687,-0.08739999681711197,0.009200000204145908,0.00019999999494757503
1702338828177405700,86.64640576171875,-0.08739999681711197,-0.010300000198185444,-0.009999999776482582
1702338828276668200,86.74566821289062,-0.06780000030994415,0.00930000003427267,0.01899999938905239
1702338828375932400,86.84493237304687,-0.06780000030994415,0.008999999612569809,0.008700000122189522
1702338828475196400,86.94419653320313,-0.05790000036358833,-0.010400000028312206,-0.0004999999655410647
1702338828574459000,87.043458984375,-0.05790000036358833,-0.0008999999845400453,-0.010699999518692493
1702338828673721300,87.14272143554687,-0.02850000001490116,-0.0005999999702908099,-0.0011999999405816197
1702338828772985300,87.2419853515625,-0.02850000001490116,-0.0010999999940395355,-0.010099999606609344
1702338828872249600,87.34124951171874,-0.02850000001490116,-0.0008999999845400453,-0.00019999999494757503
1702338828971512000,87.44051196289062,-0.02850000001490116,0.00839999970048666,-0.00019999999494757503
1702338829070776000,87.53977612304688,-0.018699999898672104,-0.0008999999845400453,0.0004999999655410647
1702338829170038500,87.63903857421874,-0.008899999782443047,-0.000699999975040555,0.00989999994635582
1702338829269301000,87.73830102539063,-0.008899999782443047,0.008200000040233135,0.00029999998514540493
1702338829368565200,87.83756518554688,-0.018699999898672104,-0.002099999925121665,-0.009800000116229057
1702338829467827700,87.93682763671875,-0.018699999898672104,0.016899999231100082,-0.00019999999494757503
1702338829567090200,88.03609008789063,-0.018699999898672104,-0.0017999999690800905,0.00969999935477972
1702338829666354200,88.13535424804688,-0.008899999782443047,-0.001999999862164259,0.00930000003427267
1702338829765616600,88.23461669921875,-0.018699999898672104,-0.0016999999061226845,-0.000699999975040555
1702338829864881000,88.333880859375,-0.02850000001490116,-0.011500000022351742,0
1702338829964145000,88.43314477539063,-0.018699999898672104,-0.00139999995008111,0
1702338830063407400,88.53240747070312,-0.03830000013113022,-0.00139999995008111,-0.009599999524652958
1702338830162669800,88.631669921875,-0.03830000013113022,-0.010900000110268593,0.009599999524652958
1702338830261932300,88.73093237304687,-0.07759999483823776,0.008299999870359898,-0.009800000116229057
1702338830361196300,88.8301962890625,-0.06769999861717224,0.007699999958276749,0
1702338830460460500,88.92946044921875,-0.08729999512434006,-0.001999999862164259,-0.00989999994635582
1702338830559723000,89.02872290039062,-0.08729999512434006,-0.001999999862164259,0.009099999442696571
1702338830658987000,89.12798706054687,-0.09719999879598618,-0.002199999988079071,-0.00989999994635582
1702338830758249500,89.22724951171875,-0.09719999879598618,-0.002300000051036477,0.00009999999747378752
1702338830857512000,89.32651196289062,-0.10700000077486038,-0.012399999424815178,-0.00009999999747378752
1702338830956776200,89.42577612304687,-0.10700000077486038,-0.0026000000070780516,0.00029999998514540493
1702338831056038700,89.52503857421875,-0.10700000077486038,-0.0026000000070780516,0.00009999999747378752
1702338831155302700,89.624302734375,-0.1265999972820282,-0.01209999993443489,0.0007999999797903001
1702338831254565000,89.72356518554687,-0.1265999972820282,-0.0023999998811632395,-0.008799999952316284
1702338831353829000,89.8228291015625,-0.11679999530315399,0.0072999997064471245,-0.008999999612569809
1702338831453091800,89.922091796875,-0.1265999972820282,-0.00279999990016222,0.0011999999405816197
1702338831552355800,90.02135595703125,-0.11679999530315399,-0.003000000026077032,0.011799999512732029
1702338831651618300,90.12061840820313,-0.1265999972820282,-0.003000000026077032,-0.008200000040233135
1702338831750882300,90.21988232421874,-0.1265999972820282,-0.0026000000070780516,0.0013000000035390258
1702338831850144800,90.31914477539063,-0.10700000077486038,-0.01249999925494194,0.0016999999061226845
1702338831949407200,90.4184072265625,-0.1265999972820282,-0.00279999990016222,-0.007499999832361937
1702338832048671500,90.51767138671875,-0.1265999972820282,-0.0023999998811632395,-0.007699999958276749
1702338832147934000,90.61693383789063,-0.1265999972820282,-0.0024999999441206455,0.011399999260902405
1702338832247198000,90.71619799804688,-0.09719999879598618,-0.0018999999156221747,0.01209999993443489
1702338832346460400,90.81546044921875,-0.1265999972820282,-0.0017999999690800905,0.021299999207258224
1702338832445724400,90.91472436523438,-0.11679999530315399,-0.011500000022351742,0.011299999430775642
1702338832544987100,91.01398706054688,-0.10700000077486038,-0.001500000013038516,0.0010999999940395355
1702338832644251100,91.11325122070312,-0.10700000077486038,-0.001500000013038516,-0.00839999970048666
1702338832743513600,91.212513671875,-0.11679999530315399,0.007499999832361937,0.010900000110268593
1702338832842777600,91.31177758789063,-0.10700000077486038,0.0072999997064471245,0.000699999975040555
1702338832942040000,91.4110400390625,-0.10700000077486038,0.0072999997064471245,0.000699999975040555
1702338833041304300,91.51030419921875,-0.08729999512434006,-0.012399999424815178,0.001999999862164259
1702338833140566800,91.60956689453126,-0.09719999879598618,-0.012299999594688416,0.0015999999595806003
1702338833239829200,91.70882934570312,-0.06769999861717224,-0.002199999988079071,0.011099999770522118
1702338833339093200,91.80809326171875,-0.05790000036358833,0.007400000002235174,0.0011999999405816197
1702338833438355700,91.90735571289062,-0.06769999861717224,0.007599999662488699,0.0009999999310821295
1702338833537619700,92.00661962890625,-0.03830000013113022,-0.002300000051036477,0.010300000198185444
1702338833636882400,92.10588232421875,-0.04809999838471413,-0.001999999862164259,0.0007999999797903001
1702338833736146400,92.205146484375,-0.02850000001490116,0.007899999618530273,-0.008799999952316284
1702338833835409000,92.30440893554687,-0.02850000001490116,0.008100000210106373,-0.008899999782443047
1702338833934673000,92.4036728515625,-0.008899999782443047,-0.010999999940395355,0.00009999999747378752
1702338834033935400,92.50293530273437,-0.018699999898672104,0.017999999225139618,0.008799999952316284
1702338834133199600,92.60219970703125,-0.018699999898672104,-0.001500000013038516,0.008499999530613422
1702338834232462000,92.70146215820313,-0.008899999782443047,-0.0013000000035390258,-0.010300000198185444
1702338834331724500,92.800724609375,0.0007999999797903001,-0.001500000013038516,-0.010400000028312206
1702338834430988500,92.89998852539063,-0.008899999782443047,-0.011399999260902405,-0.0005999999702908099
1702338834530251000,92.9992509765625,-0.008899999782443047,0.007499999832361937,-0.010300000198185444
1702338834629515300,93.09851538085937,-0.018699999898672104,0.006599999964237213,-0.0013000000035390258
1702338834728777700,93.19777783203125,-0.008899999782443047,0.006300000008195639,-0.011099999770522118
1702338834828041700,93.29704174804688,-0.008899999782443047,0.004799999762326479,-0.010799999348819256
1702338834927304200,93.39630419921875,-0.008899999782443047,-0.014800000004470348,-0.0005999999702908099
1702338835026568200,93.49556811523438,-0.018699999898672104,-0.004399999976158142,-0.010199999436736107
1702338835125830700,93.59483056640624,-0.03830000013113022,-0.014099999330937862,-0.0009999999310821295
1702338835225095000,93.69409497070312,-0.04809999838471413,0.01489999983459711,0.01809999905526638
1702338835324357400,93.793357421875,-0.06769999861717224,0.014299999922513962,-0.010599999688565731
1702338835423621400,93.89262133789063,-0.06769999861717224,-0.01489999983459711,-0.00039999998989515007
1702338835522883800,93.9918837890625,-0.08729999512434006,-0.0052999998442828655,-0.000699999975040555
1702338835622146300,94.09114624023438,-0.08729999512434006,0.0044999998062849045,0.008999999612569809
1702338835721410600,94.19041064453126,-0.09709999710321426,-0.014999999664723873,-0.010499999858438969
1702338835820673000,94.28967309570312,-0.08729999512434006,0.004699999932199717,0.009399999864399433
1702338835919935500,94.388935546875,-0.09709999710321426,-0.014399999752640724,-0.000699999975040555
1702338836019199500,94.48819946289062,-0.11669999361038208,-0.014299999922513962,0.008899999782443047
1702338836118463500,94.58746337890625,-0.11669999361038208,0.0052999998442828655,-0.010400000028312206
1702338836217726200,94.68672631835938,-0.09709999710321426,-0.0044999998062849045,0.008999999612569809
1702338836316990200,94.785990234375,-0.1264999955892563,-0.0044999998062849045,-0.010699999518692493
1702338836416252700,94.88525268554687,-0.1264999955892563,-0.004299999680370092,0.007999999448657036
1702338836515516700,94.9845166015625,-0.1363999992609024,-0.014099999330937862,0.008599999360740185
1702338836614779100,95.08377905273437,-0.10689999908208847,-0.013700000010430813,0.008499999530613422
1702338836714043400,95.18304345703125,-0.11669999361038208,-0.003700000001117587,0.017899999395012856
1702338836813305900,95.28230590820313,-0.1265999972820282,-0.022699998691678047,0.008200000040233135
1702338836912569900,95.38156982421874,-0.10700000077486038,-0.002699999837204814,-0.011099999770522118
1702338837011832300,95.48083227539063,-0.11679999530315399,-0.022099999710917473,0.008200000040233135
1702338837111094800,95.5800947265625,-0.08729999512434006,-0.011799999512732029,-0.0017999999690800905
1702338837210357200,95.67935717773437,-0.10700000077486038,0.007799999788403511,-0.0010999999940395355
1702338837309621500,95.77862158203125,-0.10700000077486038,-0.011699999682605267,-0.0010999999940395355
1702338837408884000,95.87788403320313,-0.11679999530315399,-0.00139999995008111,-0.0009999999310821295
1702338837508148000,95.97714794921875,-0.08739999681711197,0.017999999225139618,-0.010799999348819256
1702338837607412000,96.07641186523438,-0.11679999530315399,0.007899999618530273,-0.0008999999845400453
1702338837706674400,96.17567431640624,-0.10700000077486038,-0.01119999960064888,-0.0013000000035390258
1702338837805937200,96.27493725585937,-0.11679999530315399,-0.0009999999310821295,-0.011099999770522118
1702338837905201200,96.374201171875,-0.10700000077486038,-0.0010999999940395355,-0.00139999995008111
1702338838004465200,96.47346508789063,-0.09719999879598618,-0.0013000000035390258,-0.010699999518692493
1702338838103727600,96.5727275390625,-0.08739999681711197,0.00839999970048666,0.008999999612569809
1702338838202990000,96.67198999023438,-0.07759999483823776,-0.0004999999655410647,-0.0011999999405816197
1702338838302254300,96.77125439453125,-0.07759999483823776,0.009499999694526196,0.018299998715519905
1702338838401516800,96.87051684570312,-0.04809999838471413,0.009099999442696571,-0.0010999999940395355
1702338838500779300,96.969779296875,-0.03830000013113022,0.00839999970048666,-0.0010999999940395355
1702338838600043300,97.06904321289062,-0.018699999898672104,-0.010999999940395355,-0.010499999858438969
1702338838699305700,97.1683056640625,-0.04809999838471413,-0.000699999975040555,-0.009599999524652958
1702338838798569700,97.26756982421875,-0.02850000001490116,0.008899999782443047,0.0007999999797903001
1702338838897832400,97.36683251953124,-0.018699999898672104,0.008299999870359898,0.010599999688565731
1702338838997096400,97.46609643554687,-0.008899999782443047,-0.010599999688565731,-0.00019999999494757503
1702338839096359000,97.56535888671876,-0.02850000001490116,-0.0015999999595806003,-0.009200000204145908
1702338839195623000,97.66462280273437,-0.018699999898672104,-0.0018999999156221747,0.00029999998514540493
1702338839294885400,97.76388549804688,-0.03830000013113022,-0.0023999998811632395,0
1702338839394149600,97.86314965820313,-0.018699999898672104,0.007400000002235174,-0.00969999935477972
1702338839493412000,97.962412109375,-0.008899999782443047,0.007599999662488699,0.00009999999747378752
1702338839592676000,98.06167602539062,-0.008899999782443047,0.007599999662488699,-0.009599999524652958
1702338839691938600,98.1609384765625,-0.018699999898672104,-0.002300000051036477,-0.008899999782443047
1702338839791201000,98.26020092773437,-0.02850000001490116,0.006899999920278788,0.000699999975040555
1702338839890465000,98.35946508789063,-0.018699999898672104,0.006799999624490738,-0.009099999442696571
1702338839989727700,98.45872778320313,-0.02850000001490116,-0.002699999837204814,0.0005999999702908099
1702338840088991700,98.55799169921875,-0.02850000001490116,0.0071000000461936,-0.009599999524652958
1702338840188254200,98.65725415039063,-0.04809999838471413,-0.0023999998811632395,-0.009800000116229057
1702338840287518200,98.75651831054688,-0.05790000036358833,-0.002300000051036477,0.00009999999747378752
1702338840386780700,98.85578076171875,-0.07750000059604645,0.0072999997064471245,-0.009499999694526196
1702338840486045000,98.955044921875,-0.06769999861717224,0.0071000000461936,0
1702338840585307400,99.05430737304688,-0.08729999512434006,0.00699999975040555,0.0004999999655410647
1702338840684571400,99.1535712890625,-0.08729999512434006,0.0071000000461936,0.0005999999702908099
1702338840783833900,99.25283374023438,-0.10689999908208847,-0.0030999998562037945,0.010499999858438969
1702338840883096300,99.35209643554687,-0.08729999512434006,-0.022699998691678047,0.010199999436736107
1702338840982360600,99.45136059570312,-0.09709999710321426,-0.01269999984651804,0.009999999776482582
1702338841081623000,99.550623046875,-0.08729999512434006,-0.002699999837204814,0.01979999989271164
1702338841180887000,99.64988696289062,-0.09709999710321426,-0.0026000000070780516,0.010199999436736107
1702338841280149500,99.7491494140625,-0.10700000077486038,-0.011899999342858791,0.010199999436736107
1702338841379413500,99.84841357421875,-0.10700000077486038,-0.0018999999156221747,-0.00019999999494757503
1702338841478676000,99.94767602539062,-0.10700000077486038,-0.0015999999595806003,0.009499999694526196
1702338841577940200,100.04694018554687,-0.11679999530315399,0.008100000210106373,0.00930000003427267
1702338841677202700,100.14620263671875,-0.11679999530315399,-0.001500000013038516,-0.0011999999405816197
1702338841776466700,100.245466796875,-0.10700000077486038,-0.010799999348819256,-0.011299999430775642
1702338841875729200,100.34472924804687,-0.10700000077486038,-0.0004999999655410647,-0.00139999995008111
1702338841974993200,100.4439931640625,-0.11679999530315399,-0.0005999999702908099,0.008100000210106373
1702338842074256000,100.543255859375,-0.09719999879598618,-0.0004999999655410647,0.008299999870359898
1702338842173518300,100.64251831054688,-0.10700000077486038,-0.0004999999655410647,0.007999999448657036
1702338842272782300,100.7417822265625,-0.11679999530315399,-0.0007999999797903001,-0.011299999430775642
1702338842372044800,100.841044921875,-0.10700000077486038,-0.010499999858438969,-0.011399999260902405
1702338842471308800,100.94030883789063,-0.10700000077486038,0.009399999864399433,0.007899999618530273
1702338842570571500,101.03957153320313,-0.09719999879598618,0.009399999864399433,-0.001999999862164259
1702338842669835500,101.13883544921875,-0.11679999530315399,-0.00019999999494757503,-0.0013000000035390258
1702338842769098000,101.23809790039063,-0.10700000077486038,0,0.007699999958276749
1702338842868362000,101.33736206054688,-0.10700000077486038,-0.009499999694526196,-0.001999999862164259
1702338842967624400,101.43662451171875,-0.10700000077486038,0.00009999999747378752,-0.002199999988079071
1702338843066888700,101.535888671875,-0.09719999879598618,-0.009099999442696571,0.007499999832361937
1702338843166151200,101.63515112304688,-0.07759999483823776,0.009999999776482582,0.007400000002235174
1702338843265415200,101.73441528320312,-0.057999998331069946,0,-0.0026000000070780516
1702338843364677600,101.833677734375,-0.03830000013113022,0.010199999436736107,-0.00279999990016222
1702338843463941600,101.93294165039063,-0.057999998331069946,-0.008899999782443047,0.006799999624490738
1702338843563204000,102.0322041015625,-0.03830000013113022,0.010599999688565731,-0.0030999998562037945
1702338843662466800,102.131466796875,-0.02850000001490116,0.0005999999702908099,-0.002899999963119626
1702338843761730800,102.23073071289062,-0.018699999898672104,0,-0.012399999424815178
1702338843860993300,102.3299931640625,-0.02850000001490116,-0.0004999999655410647,0.0071000000461936
1702338843960257300,102.42925732421875,-0.008899999782443047,-0.0005999999702908099,-0.0024999999441206455
1702338844059519700,102.52851977539062,-0.008899999782443047,0.007699999958276749,0.0066999997943639755
1702338844158784000,102.62778393554687,0.0007999999797903001,-0.0017999999690800905,-0.002699999837204814
1702338844258046500,102.72704638671875,-0.008899999782443047,-0.0017999999690800905,-0.001500000013038516
1702338844357310500,102.826310546875,0.0007999999797903001,0.007499999832361937,-0.0010999999940395355
1702338844456573000,102.92557299804687,0.0007999999797903001,-0.001999999862164259,-0.010099999606609344
1702338844555837000,103.0248369140625,0.0007999999797903001,0.0071000000461936,-0.009599999524652958
1702338844655099600,103.124099609375,0.0007999999797903001,-0.003399999812245369,0.00009999999747378752
1702338844754362000,103.22336206054688,0.0007999999797903001,0.014999999664723873,0.009800000116229057
1702338844853626000,103.32262622070313,0.0007999999797903001,-0.013199999928474426,-0.00019999999494757503
1702338844952888600,103.421888671875,-0.018699999898672104,0.006399999838322401,0
1702338845052151000,103.52115112304688,-0.02850000001490116,0.006799999624490738,0.00009999999747378752
1702338845151415000,103.6204150390625,-0.02850000001490116,-0.012399999424815178,0.009599999524652958
1702338845250679300,103.71967919921875,-0.03830000013113022,-0.0024999999441206455,0.00009999999747378752
1702338845349941800,103.81894165039063,-0.04809999838471413,-0.002699999837204814,0.010199999436736107
1702338845449205800,103.91820581054688,-0.06769999861717224,-0.002899999963119626,0.00039999998989515007
1702338845548468200,104.01746826171875,-0.05790000036358833,-0.002899999963119626,0.00989999994635582
1702338845647730700,104.11673071289063,-0.05790000036358833,0.006799999624490738,-0.009099999442696571
1702338845746995000,104.21599487304688,-0.07750000059604645,-0.003000000026077032,0.0009999999310821295
1702338845846259000,104.31525903320312,-0.05790000036358833,-0.003399999812245369,0.0013000000035390258
1702338845945521400,104.414521484375,-0.06769999861717224,-0.003700000001117587,0.0010999999940395355
1702338846044785400,104.51378540039063,-0.03830000013113022,-0.0032999999821186066,0.02070000022649765
1702338846144046300,104.61304638671875,-0.04809999838471413,-0.003000000026077032,-0.008499999530613422
1702338846243310300,104.71231030273438,-0.05790000036358833,-0.01269999984651804,0.001500000013038516
1702338846342574600,104.81157470703126,-0.04809999838471413,0.006799999624490738,0.0017999999690800905
1702338846441838600,104.91083862304687,-0.06769999861717224,0.007199999876320362,0.0016999999061226845
1702338846541099500,105.010099609375,-0.04809999838471413,-0.0024999999441206455,-0.007799999788403511
1702338846640363500,105.10936352539062,-0.06769999861717224,0.0071000000461936,-0.007599999662488699
1702338846739626000,105.2086259765625,-0.03830000013113022,-0.012299999594688416,0.002199999988079071
1702338846838890200,105.30789013671875,-0.06769999861717224,-0.002300000051036477,-0.00699999975040555
1702338846938152700,105.40715258789062,-0.03830000013113022,-0.002699999837204814,0.012199999764561653
1702338847037416700,105.50641674804687,-0.02850000001490116,0.007400000002235174,0.002899999963119626
1702338847136679200,105.60567919921876,-0.03830000013113022,-0.0018999999156221747,0.012799999676644802
1702338847235941600,105.70494165039062,-0.04809999838471413,-0.0023999998811632395,-0.006300000008195639
1702338847335206000,105.80420581054688,-0.03830000013113022,-0.0026000000070780516,-0.006099999882280827
1702338847434468400,105.90346826171876,-0.05790000036358833,-0.0023999998811632395,0.013599999248981476
1702338847533732400,106.002732421875,-0.04809999838471413,-0.0023999998811632395,0.003599999938160181
1702338847632994800,106.10199487304688,-0.06769999861717224,-0.01249999925494194,0.013100000098347664
1702338847732258800,106.2012587890625,-0.07750000059604645,0.007400000002235174,0.0030999998562037945
1702338847831521300,106.30052124023437,-0.06769999861717224,-0.002099999925121665,0.003499999875202775
1702338847930785500,106.39978564453125,-0.08739999681711197,-0.0017999999690800905,0.003399999812245369
1702338848030048000,106.49904809570313,-0.06769999861717224,-0.0018999999156221747,0.003399999812245369
1702338848129312000,106.59831201171875,-0.08739999681711197,0.007799999788403511,0.013199999928474426
1702338848228574500,106.69757446289063,-0.04809999838471413,0.008100000210106373,0.022499999031424522
1702338848327838500,106.79683837890624,-0.06769999861717224,-0.00139999995008111,-0.007199999876320362
1702338848427101200,106.89610107421875,-0.04809999838471413,-0.0017999999690800905,0.0024999999441206455
1702338848526365200,106.995365234375,-0.05790000036358833,-0.0013000000035390258,0.0018999999156221747
1702338848625627600,107.09462768554687,-0.03830000013113022,0.008499999530613422,-0.007799999788403511
1702338848724890000,107.19389013671875,-0.03830000013113022,-0.0011999999405816197,0.0017999999690800905
1702338848824154000,107.29315405273438,-0.02850000001490116,-0.000699999975040555,0.0017999999690800905
1702338848923418400,107.39241845703125,-0.02850000001490116,0.008599999360740185,-0.007199999876320362
1702338849022680800,107.49168090820312,-0.018699999898672104,-0.0011999999405816197,0.002699999837204814
1702338849121943300,107.590943359375,-0.018699999898672104,-0.0017999999690800905,0.012399999424815178
1702338849221207300,107.69020727539062,-0.018699999898672104,0.0072999997064471245,0.011899999342858791
1702338849320469800,107.7894697265625,-0.02850000001490116,-0.0023999998811632395,0.011099999770522118
1702338849419734000,107.88873413085938,-0.03830000013113022,0.006599999964237213,0.0005999999702908099
1702338849518996500,107.98799658203124,-0.008899999782443047,-0.0024999999441206455,-0.0004999999655410647
1702338849618260500,108.08726049804687,-0.02850000001490116,-0.011899999342858791,-0.0009999999310821295
1702338849717523000,108.18652294921876,0.0007999999797903001,-0.011299999430775642,-0.0013000000035390258
1702338849816785400,108.28578540039062,-0.03830000013113022,0.026499999687075615,0.008499999530613422
1702338849916049400,108.38504931640625,-0.018699999898672104,0.025200000032782555,-0.0015999999595806003
1702338850015313700,108.48431372070313,-0.04809999838471413,0.024699999019503593,-0.002099999925121665
1702338850114576100,108.583576171875,-0.04809999838471413,0.013899999670684338,-0.002699999837204814
1702338850213840100,108.68284008789063,-0.05790000036358833,0.013499999418854713,-0.003000000026077032
1702338850313104100,108.78210424804688,-0.05790000036358833,0.012799999676644802,0.006399999838322401
1702338850412365000,108.88136499023437,-0.09709999710321426,0.002699999837204814,-0.003700000001117587
1702338850511629300,108.98062939453125,-0.008799999952316284,0.012199999764561653,-0.0031999999191612005
1702338850610891800,109.07989184570313,-0.09709999710321426,0.012000000104308128,0.00699999975040555
1702338850710155800,109.17915576171875,-0.11669999361038208,0.012000000104308128,0.006399999838322401
1702338850809418200,109.27841821289063,-0.09709999710321426,0.002199999988079071,0.0058999997563660145
1702338850908682200,109.37768212890624,-0.10689999908208847,0.021399999037384987,-0.013799999840557575
1702338851007945000,109.47694506835937,-0.08729999512434006,0.01119999960064888,0.0050999997183680534
1702338851107209000,109.576208984375,-0.11669999361038208,0.020899999886751175,0.0052999998442828655
1702338851206471400,109.67547143554688,-0.08729999512434006,0.010900000110268593,-0.004100000020116568
1702338851305735400,109.7747353515625,-0.10689999908208847,0.010499999858438969,-0.004299999680370092
1702338851404998000,109.87399780273438,-0.1362999975681305,0.01979999989271164,-0.014699999243021011
1702338851504262100,109.97326220703125,-0.11669999361038208,-0.019500000402331352,-0.004999999888241291
1702338851603524600,110.07252465820312,-0.1362999975681305,0,-0.01489999983459711
1702338851702787000,110.171787109375,-0.1362999975681305,-0.019700000062584877,-0.004900000058114529
1702338851802051000,110.27105102539062,-0.11669999361038208,-0.019099999219179153,-0.005200000014156103
1702338851901313500,110.3703134765625,-0.11669999361038208,0.0005999999702908099,0.004900000058114529
1702338852000577500,110.46957763671875,-0.1264999955892563,-0.008599999360740185,-0.004600000102072954
1702338852099840300,110.56884033203124,-0.1264999955892563,-0.007799999788403511,0.004600000102072954
1702338852199104300,110.66810424804687,-0.1264999955892563,-0.01719999872148037,0.004399999976158142
1702338852298366700,110.76736669921875,-0.1362999975681305,0.002899999963119626,0.004600000102072954
1702338852397629200,110.86662915039062,-0.11669999361038208,-0.005799999926239252,-0.004799999762326479
1702338852496893200,110.96589306640625,-0.10689999908208847,-0.005399999674409628,-0.0044999998062849045
1702338852596155600,111.06515576171876,-0.1362999975681305,-0.0052999998442828655,-0.0044999998062849045
1702338852695418400,111.16441845703125,-0.11669999361038208,0.004699999932199717,0.004799999762326479
1702338852794682400,111.26368237304688,-0.10689999908208847,-0.004600000102072954,-0.004600000102072954
1702338852893946400,111.3629462890625,-0.11669999361038208,-0.004299999680370092,-0.014399999752640724
1702338852993208800,111.46220874023437,-0.1362999975681305,-0.004299999680370092,0.0052999998442828655
1702338853092471300,111.56147119140626,-0.11669999361038208,0.01529999915510416,0.005399999674409628
1702338853191735600,111.66073559570313,-0.08729999512434006,0.005200000014156103,-0.004399999976158142
1702338853290999600,111.75999951171875,-0.08729999512434006,-0.0044999998062849045,-0.004399999976158142
1702338853390262000,111.85926196289063,-0.06769999861717224,-0.00419999985024333,0.01489999983459711
1702338853489526000,111.95852612304688,-0.05790000036358833,-0.0032999999821186066,-0.014599999412894249
1702338853588788500,112.05778857421875,-0.07750000059604645,-0.002899999963119626,-0.014299999922513962
1702338853688052700,112.157052734375,-0.04809999838471413,-0.002899999963119626,-0.004100000020116568
1702338853787315200,112.25631518554688,-0.03830000013113022,0.006799999624490738,-0.013599999248981476
1702338853886577700,112.35557763671875,-0.04809999838471413,0.006899999920278788,-0.004699999932199717
1702338853985840000,112.45484008789063,-0.02850000001490116,0.006899999920278788,0.004799999762326479
1702338854085104000,112.55410424804687,-0.03830000013113022,-0.012600000016391277,0.005399999674409628
1702338854184366600,112.65336669921875,-0.02850000001490116,0.00699999975040555,-0.0030999998562037945
1702338854283630800,112.752630859375,-0.03830000013113022,-0.003499999875202775,-0.0024999999441206455
1702338854382894800,112.85189477539062,-0.02850000001490116,-0.012899999506771564,-0.0024999999441206455
1702338854482158800,112.95115893554687,-0.03830000013113022,-0.012299999594688416,-0.011799999512732029
1702338854581419800,113.05041967773437,-0.008899999782443047,0.007599999662488699,-0.002300000051036477
1702338854680683800,113.14968383789062,-0.02850000001490116,0.0071000000461936,0.0072999997064471245
1702338854779946500,113.24894653320312,-0.008899999782443047,-0.002099999925121665,-0.0030999998562037945
1702338854879210500,113.34821044921875,-0.03830000013113022,-0.0004999999655410647,-0.001999999862164259
1702338854978474500,113.447474609375,-0.02850000001490116,-0.009800000116229057,0.007899999618530273
1702338855077735400,113.5467353515625,-0.04809999838471413,0.019099999219179153,-0.0010999999940395355
1702338855176999400,113.64599951171876,-0.04809999838471413,-0.00009999999747378752,-0.01119999960064888
1702338855276262100,113.74526220703125,-0.06780000030994415,-0.00019999999494757503,0.008299999870359898
1702338855375526100,113.84452612304688,-0.07759999483823776,0.019099999219179153,-0.0015999999595806003
1702338855474788600,113.94378857421874,-0.08739999681711197,-0.000699999975040555,-0.0016999999061226845
1702338855574052600,114.04305249023437,-0.08739999681711197,-0.010300000198185444,0.0072999997064471245
1702338855673316600,114.14231665039063,-0.09719999879598618,0.00839999970048666,-0.00279999990016222
1702338855772579300,114.24157934570313,-0.09719999879598618,0.008700000122189522,-0.00279999990016222
1702338855871843300,114.34084326171875,-0.10700000077486038,-0.0008999999845400453,0.006899999920278788
1702338855971105800,114.44010571289063,-0.11679999530315399,-0.0008999999845400453,-0.002899999963119626
1702338856070369800,114.53936987304688,-0.1265999972820282,-0.0008999999845400453,0.006300000008195639
1702338856169632300,114.63863232421875,-0.08739999681711197,-0.000699999975040555,-0.0032999999821186066
1702338856268894700,114.73789477539063,-0.08739999681711197,-0.0004999999655410647,-0.003499999875202775
1702338856368159000,114.83715893554688,-0.07759999483823776,0.009200000204145908,-0.003599999938160181
1702338856467421400,114.93642138671875,-0.08739999681711197,-0.00039999998989515007,0.005699999630451202
1702338856566684000,115.03568383789063,-0.06780000030994415,-0.00989999994635582,-0.0139999995008111
1702338856665948000,115.13494799804687,-0.09719999879598618,-0.008999999612569809,-0.00419999985024333
1702338856765210400,115.23421044921875,-0.09719999879598618,0.0009999999310821295,0.004699999932199717
1702338856864474600,115.333474609375,-0.09719999879598618,0.020399998873472214,0.014999999664723873
1702338856963737000,115.43273706054687,-0.09719999879598618,0.0005999999702908099,-0.004299999680370092
1702338857063001000,115.5320009765625,-0.11679999530315399,0.000699999975040555,-0.004100000020116568
1702338857162263600,115.631263671875,-0.09719999879598618,0.000699999975040555,-0.013899999670684338
1702338857261527600,115.73052758789062,-0.10700000077486038,0.0007999999797903001,-0.003700000001117587
1702338857360790300,115.82979028320312,-0.10700000077486038,-0.008799999952316284,-0.012999999336898327
1702338857460054300,115.92905419921875,-0.11679999530315399,0.0008999999845400453,0.0066999997943639755
1702338857559316700,116.02831665039062,-0.10700000077486038,-0.008499999530613422,-0.00279999990016222
1702338857658580700,116.12758081054687,-0.10700000077486038,-0.008299999870359898,0.00699999975040555
1702338857757844700,116.2268447265625,-0.11679999530315399,-0.008200000040233135,-0.012299999594688416
1702338857857107500,116.326107421875,-0.09719999879598618,0.0016999999061226845,-0.002899999963119626
1702338857956370000,116.42536987304688,-0.1363999992609024,-0.008100000210106373,-0.00279999990016222
1702338858055634000,116.52463403320313,-0.11679999530315399,0.0015999999595806003,-0.002899999963119626
1702338858154896400,116.623896484375,-0.1265999972820282,-0.007699999958276749,-0.0026000000070780516
1702338858254158800,116.72315893554688,-0.11679999530315399,0.011500000022351742,0.0072999997064471245
1702338858353422800,116.8224228515625,-0.08739999681711197,0.001999999862164259,-0.0024999999441206455
1702338858452685600,116.921685546875,-0.09719999879598618,0.011699999682605267,-0.01249999925494194
