time,seconds_elapsed,z,y,x
1702338741759707000,0.228706787109375,-0.006248278543353081,0.060126591473817825,-0.032707471400499344
1702338741858969300,0.32796923828125,0.04386012256145477,-0.03331833705306053,0.06499606370925903
1702338741958233300,0.4272333984375,0.03248057886958122,-0.04508185386657715,0.039217546582221985
1702338742057495800,0.526495849609375,-0.0003665191470645368,-0.01776745170354843,-0.041573744267225266
1702338742156758300,0.62575830078125,-0.01302015595138073,0.002373647876083851,-0.018971728160977364
1702338742256034800,0.725034912109375,-0.013439035043120384,-0.039618972688913345,0.016947146505117416
1702338742355285000,0.824284912109375,-0.041172318160533905,0.07768460363149643,0.006859143730252981
1702338742454549000,0.923549072265625,-0.04832816496491432,0.02307325229048729,0.022252947092056274
1702338742553811500,1.0228115234375,0.20547761023044586,0.14034192264080048,0.07913322746753693
1702338742653074000,1.122073974609375,0.31728339195251465,0.5617865920066833,-0.46181410551071167
1702338742752338000,1.221337890625,0.0015533430268988013,0.28272587060928345,-0.10430087894201279
1702338742851600600,1.3206005859375,-0.18010053038597107,0.08656833320856094,0.1863313466310501
1702338742950864600,1.41986474609375,-0.2968979477882385,0.7423757910728455,0.21910862624645233
1702338743050128600,1.519128662109375,0.40249037742614746,-1.7118712663650513,0.008691739290952682
1702338743149391000,1.61839111328125,-0.3436204195022583,0.10005972534418106,-0.5731661319732666
1702338743248655000,1.717655029296875,-0.6501700282096863,-1.251610517501831,0.7750483751296997
1702338743347917800,1.816917724609375,-0.7021633982658386,-0.5722411274909973,-0.18053685128688812
1702338743447180300,1.91618017578125,0.16149531304836273,-0.2231927067041397,-0.1805892139673233
1702338743546444300,2.0154443359375,0.11573278158903122,0.18153169751167297,-0.15688765048980713
1702338743645706800,2.114706787109375,-0.06965608894824982,-0.3441614806652069,0.09185668081045151
1702338743744970800,2.213970703125,-0.12264428287744522,-0.7898662090301514,0.21507692337036133
1702338743844233200,2.313233154296875,0.028955012559890747,-0.19263198971748352,0.03460988029837608
1702338743943497500,2.41249755859375,0.052063170820474625,-0.32073915004730225,-0.08939576148986816
1702338744042760000,2.511760009765625,-0.12000884115695953,-0.07653268426656723,0.269059956073761
1702338744142022400,2.6110224609375,0.17990854382514954,0.4337841272354126,-0.1860869973897934
1702338744241286400,2.710286376953125,-0.2335774153470993,0.17842501401901245,-0.13440780341625214
1702338744340548900,2.809548828125,0.16716763377189636,0.7189883589744568,-1.0562208890914917
1702338744439811600,2.9088115234375,0.039968039840459824,-0.061941735446453094,0.2586403489112854
1702338744539075600,3.00807568359375,0.2932676672935486,-0.1255589872598648,0.0005759586347267032
1702338744638339600,3.107339599609375,0.5944242477416992,0.09944885969161987,-0.29049259424209595
1702338744737602000,3.20660205078125,1.4274873733520508,0.5003858804702759,-2.596177339553833
1702338744836866000,3.305865966796875,0.7112390995025635,1.3363287448883057,0.5054997205734253
1702338744936128800,3.405128662109375,0.6788108944892883,0.25794219970703125,0.5426577925682068
1702338745035392800,3.504392822265625,0.44310417771339417,-0.30712559819221497,0.21708405017852783
1702338745134655200,3.6036552734375,-0.3403915762901306,1.0060776472091675,0.6114411950111389
1702338745233917700,3.702917724609375,0.5259898900985718,3.2523512840270996,0.222948357462883
1702338745333181700,3.802181640625,0.18706439435482025,0.7501948475837708,0.529864490032196
1702338745432444200,3.901444091796875,0.34149113297462463,0.172822505235672,-1.6257916688919067
1702338745531708400,4.00070849609375,1.3714274168014526,0.24785420298576355,0.3853512406349182
1702338745630971000,4.099970947265625,0.32443925738334656,1.5053116083145142,-1.4539989233016968
1702338745730235000,4.19923486328125,0.5666036605834961,0.6670299172401428,0.6152459979057312
1702338745829497300,4.298497314453125,1.9348196983337402,-2.0495400428771973,0.5402666926383972
1702338745928761300,4.39776123046875,2.3426332473754883,-0.6087184548377991,0.4329114556312561
1702338746028024000,4.497024169921875,1.6397019624710083,-0.5710892081260681,-0.712425947189331
1702338746127288000,4.5962880859375,0.26947882771492004,-1.5225205421447754,-0.9112364053726196
1702338746226550500,4.695550537109375,0.4458792507648468,-3.3124778270721436,-0.2373124212026596
1702338746325814500,4.794814453125,-0.2652376890182495,1.4561456441879272,-0.5401619672775269
1702338746425077000,4.894076904296875,0.21670007705688477,3.724358081817627,-0.873380184173584
1702338746524339700,4.993339599609375,0.6617066860198975,0.5036845803260803,-0.10510372370481491
1702338746623603700,5.092603759765625,0.44601887464523315,0.0022689281031489372,0.030141836032271385
1702338746722866200,5.1918662109375,0.8770803213119507,-0.6891607046127319,0.07723081856966019
1702338746822130200,5.291130126953125,0.9828647375106812,-0.30864402651786804,-0.0012740903766825795
1702338746921392600,5.390392578125,0.6362423300743103,-0.16577136516571045,-0.15653857588768005
1702338747020655000,5.489655029296875,-0.08934340626001358,-0.004241149872541428,0.011903145350515842
1702338747119919400,5.58891943359375,0.7371048927307129,0.026511551812291145,0.05881759524345398
1702338747219181800,5.688181884765625,-0.4069409668445587,0.21481512486934662,-0.09452702850103378
1702338747318444300,5.7874443359375,1.053358554840088,-0.03735004737973213,0.012531463988125324
1702338747417708300,5.886708251953125,0.6156299710273743,-0.43654173612594604,0.07916813343763351
1702338747516972300,5.98597216796875,0.28504717350006104,-0.11999138444662094,-0.01242674421519041
1702338747616235000,6.085235107421875,-0.46965065598487854,-0.06614797562360764,0.19657643139362335
1702338747715497500,6.18449755859375,1.24290132522583,0.585313618183136,0.03808308392763138
1702338747814761500,6.283761474609375,-0.1431519091129303,-0.054279740899801254,-0.10180505365133286
1702338747914025500,6.383025390625,0.5164778232574463,0.061802107840776443,0.029338983818888664
1702338748013288000,6.482287841796875,0.35760051012039185,-0.19580848515033722,-0.03769911080598831
1702338748112552200,6.58155224609375,0.18095573782920837,0.09639453142881393,0.09567894786596298
1702338748211814700,6.680814697265625,0.08943066745996475,0.21361084282398224,-0.06080726906657219
1702338748311078700,6.78007861328125,-0.11842058598995209,-0.5549100041389465,-0.20434315502643585
1702338748410341000,6.879341064453125,-1.1908905506134033,0.11067132651805878,-0.04525638744235039
1702338748509603600,6.978603515625,-0.567895233631134,0.0719948336482048,0.07955210655927658
1702338748608866000,7.077865966796875,0.20732766389846802,-0.018360864371061325,-0.13636256754398346
1702338748708130300,7.17713037109375,-0.13035863637924194,0.1938362717628479,0.06504841893911362
1702338748807392800,7.276392822265625,-0.5310862064361572,0.3680550456047058,0.0982271283864975
1702338748906656800,7.37565673828125,-0.6003932356834412,-0.10648253560066223,0.4616919457912445
1702338749005919200,7.474919189453125,-0.7753450870513916,-0.26195645332336426,-0.07424630969762802
1702338749105183200,7.574183349609375,-1.2642292976379395,-0.3926641643047333,0.23549728095531464
1702338749204446000,7.673446044921875,-1.4909300804138184,0.6200281977653503,0.15587535500526428
1702338749303710000,7.7727099609375,-1.2841085195541382,0.049637164920568466,0.9027889966964722
1702338749402972400,7.871972412109375,-0.5425356030464172,-0.509723424911499,-0.07757988572120667
1702338749502235000,7.97123486328125,-0.9442754983901978,0.7602479457855225,0.01061160210520029
1702338749601500400,8.07050048828125,-0.4372573494911194,0.26083946228027344,-0.08847074210643768
1702338749700761300,8.16976123046875,0.22893483936786652,-0.027715828269720078,-0.48745301365852356
1702338749800025600,8.269025634765624,-0.08361872285604477,-0.4328416585922241,-0.5021835565567017
1702338749899289600,8.36828955078125,-0.03865904361009598,-0.8050680160522461,-0.6077585220336914
1702338749998552000,8.467552001953125,-0.014346606098115444,-0.2664070427417755,-0.2646442651748657
1702338750097814500,8.566814453125,-0.11714649945497513,-0.3843040466308594,0.33423054218292236
1702338750197078500,8.66607861328125,-0.2445206344127655,-0.052290063351392746,0.28555330634117126
1702338750296341200,8.76534130859375,-0.9527577757835388,-1.1521965265274048,-0.06244787946343422
1702338750395605200,8.864605224609376,-0.027174776419997215,0.011013027280569077,-0.0002617993741296232
1702338750494867700,8.96386767578125,0.00815068744122982,-0.0342782661318779,0.0026703537441790104
1702338750594131700,9.063131591796875,0.0035604715812951326,0.0665144994854927,-0.004380776546895504
1702338750693395700,9.162395751953126,0.006126105785369873,0.020367993041872978,0.0034382985904812813
1702338750792657000,9.261656982421876,0.005846852902323008,-0.0091455252841115,0.0011693706037476659
1702338750891921000,9.3609208984375,0.004782202187925577,-0.0042236968874931335,-0.002548180753365159
1702338750991185000,9.460184814453125,0.004904375411570072,-0.004310963209718466,-0.0018675023457035422
1702338751090447400,9.559447265625,0.006597344763576984,-0.0035953782498836517,-0.0014486232539638877
1702338751189709800,9.658709716796874,0.006562437862157822,-0.0025656339712440968,-0.0013788101496174932
1702338751288974000,9.75797412109375,0.006684611085802317,-0.002600540639832616,-0.00125663704238832
1702338751388238000,9.857238037109376,0.006597344763576984,-0.004241149872541428,-0.002286381321027875
1702338751487500500,9.95650048828125,0.0063355453312397,-0.0047996556386351585,-0.0012042771559208632
1702338751586763000,10.055762939453125,0.007033676840364933,-0.004310963209718466,-0.0016755161341279745
1702338751686027000,10.155027099609375,0.004642575979232788,-0.004886921960860491,-0.0017104226863011718
1702338751785289500,10.25428955078125,0.006562437862157822,-0.004834562074393034,-0.0031939526088535786
1702338751884553700,10.3535537109375,0.007260569836944342,-0.005619960371404886,-0.0026529005263000727
1702338751983816200,10.452816162109375,0.005881759338080883,-0.005427973810583353,-0.0028623400721699
1702338752083078700,10.55207861328125,0.0074525559321045876,-0.0057072266936302185,-0.0024085543118417263
1702338752182342700,10.6513427734375,0.0050090947188436985,-0.004136430099606514,-0.002600540639832616
1702338752281605000,10.750605224609375,0.005393067374825478,-0.003508111694827676,-0.003089232835918665
1702338752380869400,10.849869384765626,0.004956734832376242,-0.004171337001025677,-0.0010995573829859495
1702338752480131800,10.9491318359375,0.00609119888395071,-0.00427605677396059,-0.002809980185702443
1702338752579395800,11.048395751953125,0.005864306353032589,-0.005270894151180983,-0.0017802357906475663
1702338752678658300,11.147658203125,0.0062831854447722435,-0.005846852902323008,-0.0018151424592360854
1702338752777922300,11.24692236328125,0.00593411922454834,-0.005986479111015797,-0.0019896754529327154
1702338752877185000,11.34618505859375,0.005969026125967503,-0.006370451766997576,-0.002373647876083851
1702338752976449000,11.445448974609375,0.006841690745204687,-0.005061454605311155,-0.002373647876083851
1702338753075711500,11.54471142578125,0.005445427261292934,-0.005218534264713526,-0.00296705961227417
1702338753174975500,11.6439755859375,0.005916666239500046,-0.005148721393197775,-0.0024958208668977022
1702338753274238000,11.743238037109375,0.005532693583518267,-0.0029321531765162945,-0.0013264502631500363
1702338753373500400,11.84250048828125,0.0067369709722697735,-0.005096361506730318,-0.0020420351065695286
1702338753472764700,11.9417646484375,0.006544984877109528,-0.005061454605311155,-0.0026354470755904913
1702338753572028700,12.041028564453125,0.005323254037648439,-0.004921828396618366,-0.0024958208668977022
1702338753671291100,12.140291015625,0.005445427261292934,-0.005358160939067602,-0.003455751808360219
1702338753770555100,12.23955517578125,0.00427605677396059,-0.006719517521560192,-0.002600540639832616
1702338753869817600,12.338817626953125,0.005777040030807257,-0.006649704650044441,-0.001658062799833715
1702338753969080300,12.438080322265625,0.005602506920695305,-0.005567600484937429,-0.0026354470755904913
1702338754068344300,12.53734423828125,0.005061454605311155,-0.005305801052600145,-0.002460914198309183
1702338754167606800,12.636606689453124,0.005811946466565132,-0.0066147977486252785,-0.0026354470755904913
1702338754266870800,12.735870849609375,0.006387905217707157,-0.00593411922454834,-0.00047123889089562
1702338754366133200,12.83513330078125,0.0067369709722697735,-0.0031415927223861217,-0.0015707963611930609
1702338754465395700,12.934395751953126,0.005899212788790464,-0.002024581888690591,-0.002722713630646467
1702338754564660000,13.033659912109375,0.005794493015855551,-0.0025830871891230345,-0.0015009831404313445
1702338754663922400,13.13292236328125,0.005113814491778612,-0.00427605677396059,-0.0010122909443452954
1702338754763185000,13.232184814453126,0.005672320257872343,-0.0024260077625513077,-0.002478367416188121
1702338754862450400,13.331450439453125,0.004852015525102615,-0.0041015236638486385,-0.0013264502631500363
1702338754961711400,13.43071142578125,0.006527531426399946,-0.005986479111015797,-0.00062831852119416
1702338755060975600,13.5299755859375,0.005166174378246069,-0.0027925267349928617,-0.0014137167017906904
1702338755160239600,13.629239501953125,0.005445427261292934,-0.004921828396618366,-0.002007128670811653
1702338755259502000,13.728502197265625,0.005375613924115896,-0.004817108623683453,-0.0019896754529327154
1702338755358766000,13.82776611328125,0.0057072266936302185,-0.005811946466565132,-0.003298672381788492
1702338755458028500,13.927028564453124,0.0061610122211277485,-0.004310963209718466,-0.0037350046914070845
1702338755557292800,14.026292724609375,0.006981316953897476,-0.004939281847327948,-0.0018325956771150231
1702338755656555300,14.12555517578125,0.0063355453312397,-0.0070685832761228085,-0.003089232835918665
1702338755755817700,14.224817626953126,0.006475171539932489,-0.006056292448192835,-0.002600540639832616
1702338755855081700,14.324081787109375,0.007120943162590265,-0.005515240598469973,-0.002809980185702443
1702338755954345700,14.423345703125,0.007208209950476885,-0.00457276264205575,-0.0022165682166814804
1702338756053606700,14.522606689453125,0.0057072266936302185,-0.005567600484937429,-0.002251474652439356
1702338756152872400,14.62187255859375,0.00617846567183733,-0.006352998316287994,-0.0028972465079277754
1702338756252135000,14.721135009765625,0.005078908056020737,-0.004660028964281082,-0.0023561944253742695
1702338756351397400,14.8203974609375,0.005148721393197775,-0.0028797932900488377,-0.0019896754529327154
1702338756450659800,14.919659912109376,0.0049916417337954044,0.00015707963029854,-0.004660028964281082
1702338756549923800,15.018923828125,0.00609119888395071,-0.0038222710136324167,-0.0019198621157556772
1702338756649186600,15.1181865234375,0.0057246801443398,-0.005375613924115896,-0.00047123889089562
1702338756748450600,15.217450439453126,0.005742133129388094,-0.005218534264713526,-0.0009250245057046413
1702338756847713000,15.316713134765624,0.006492624990642071,-0.003298672381788492,-0.002914699725806713
1702338756946977000,15.41597705078125,0.005742133129388094,-0.0046774824149906635,-0.001343903481028974
1702338757046239500,15.515239501953126,0.006248278543353081,-0.00563741335645318,-0.0013264502631500363
1702338757145503700,15.614503662109374,0.005515240598469973,-0.0032114058267325163,-0.00027925267932005227
1702338757244767700,15.713767822265625,0.006510077975690365,-0.0011519172694534063,-0.003351032268255949
1702338757344030200,15.8130302734375,0.005881759338080883,-0.005794493015855551,-0.0022165682166814804
1702338757443292700,15.912292724609374,0.005497787147760391,-0.005061454605311155,-0.0024958208668977022
1702338757542555100,16.01155517578125,0.005672320257872343,-0.0021642083302140236,-0.0028448866214603186
1702338757641819400,16.1108193359375,0.006126105785369873,-0.002007128670811653,-0.0030717793852090836
1702338757741081900,16.210081787109374,0.006544984877109528,-0.0009599310578778386,-0.0024085543118417263
1702338757840345900,16.309345947265626,0.006422811653465033,-0.003490658476948738,-0.0020943949930369854
1702338757939608300,16.4086083984375,0.005235987715423107,-0.00548033369705081,-0.001117010717280209
1702338758038872300,16.507872314453124,0.006370451766997576,-0.004450589418411255,-0.00013962633966002613
1702338758138134800,16.607134765625,0.006108652334660292,-0.00427605677396059,-0.0008203047327697277
1702338758237399000,16.70639892578125,0.004468042869120836,-0.004153883550316095,-0.0017627825727686286
1702338758336661500,16.80566162109375,0.005375613924115896,-0.005323254037648439,-0.0024085543118417263
1702338758435925500,16.904925537109374,0.005375613924115896,-0.0045378562062978745,-0.001745329238474369
1702338758535188000,17.00418798828125,0.004939281847327948,-0.005811946466565132,-0.0024260077625513077
1702338758634452000,17.103451904296875,0.005305801052600145,-0.0073129297234117985,-0.00143117003608495
1702338758733716200,17.20271630859375,0.0061610122211277485,-0.0052534411661326885,-0.0019024088978767395
1702338758832978700,17.301978759765625,0.005829399451613426,-0.00593411922454834,-0.002146754879504442
1702338758932241200,17.4012412109375,0.0067369709722697735,-0.009878563694655895,-0.0020769417751580477
1702338759031505200,17.500505126953126,0.004782202187925577,-0.006300638429820538,-0.003263765713199973
1702338759130767600,17.599767578125,0.005916666239500046,-0.006387905217707157,-0.0026354470755904913
1702338759230030300,17.6990302734375,0.006300638429820538,-0.005201081279665232,-0.0023911010939627886
1702338759329294300,17.79829443359375,0.00663225119933486,-0.006562437862157822,-0.0013962633674964309
1702338759428556800,17.897556884765624,0.005166174378246069,-0.004974188283085823,-0.002251474652439356
1702338759527820800,17.99682080078125,0.006265731994062662,-0.005986479111015797,-0.0026179938577115536
1702338759627083300,18.096083251953125,0.005532693583518267,-0.004764748737215996,-0.001483529806137085
1702338759726347500,18.195347412109374,0.007103490177541971,-0.006300638429820538,-0.001117010717280209
1702338759825610000,18.29460986328125,0.006073745898902416,-0.004293509759008884,-0.0017976891249418259
1702338759924872400,18.39387255859375,0.005340707488358021,-0.005759586580097675,-0.0020769417751580477
1702338760024136400,18.493136474609376,0.005497787147760391,-0.0062831854447722435,-0.0013788101496174932
1702338760123399000,18.59239892578125,0.005218534264713526,-0.0035953782498836517,-0.0010995573829859495
1702338760222663000,18.691662841796877,0.007853982038795948,-0.0038397242315113544,-0.001117010717280209
1702338760321925600,18.790925537109374,0.0052534411661326885,-0.006318091880530119,-0.002007128670811653
1702338760421189600,18.890189697265626,0.005777040030807257,-0.005061454605311155,-0.0020420351065695286
1702338760520452000,18.9894521484375,0.006300638429820538,-0.004747295752167702,-0.001745329238474369
1702338760619716000,19.088716064453124,0.0052534411661326885,-0.005846852902323008,-0.0022689281031489372
1702338760718978600,19.187978515625,0.0062831854447722435,-0.005410520825535059,-0.0007853981805965304
1702338760818242800,19.287242919921876,0.005951572675257921,-0.006056292448192835,-0.0021118484437465668
1702338760917505300,19.38650537109375,0.006859143730252981,-0.0030194194987416267,0.00094247778179124
1702338761016767700,19.485767822265625,0.00548033369705081,-0.006544984877109528,-0.0035953782498836517
1702338761116031700,19.58503173828125,0.00563741335645318,-0.004310963209718466,-0.0014137167017906904
1702338761215295700,19.684295654296875,0.00678933085873723,-0.005096361506730318,-0.0012217304902151227
1702338761314558500,19.783558349609375,0.006387905217707157,-0.005445427261292934,-0.0023387412074953318
1702338761413821000,19.882821044921876,0.005166174378246069,-0.006859143730252981,-0.0035953782498836517
1702338761513085000,19.9820849609375,0.006126105785369873,-0.005829399451613426,-0.0019024088978767395
1702338761612347400,20.081347412109373,0.005951572675257921,-0.00411897711455822,-0.0011519172694534063
1702338761711611400,20.180611328125,0.006422811653465033,-0.00502654816955328,-0.0009599310578778386
1702338761810873900,20.279873779296874,0.005619960371404886,-0.003263765713199973,-0.0033684854861348867
1702338761910138000,20.37913818359375,0.006859143730252981,-0.00724311638623476,-0.0010646508308127522
1702338762009400600,20.478400634765624,0.005794493015855551,-0.0023387412074953318,-0.0016406094655394554
1702338762108664600,20.57766455078125,0.006405358202755451,-0.004206243436783552,-0.001483529806137085
1702338762207927000,20.676927001953125,0.0057246801443398,-0.005515240598469973,-0.0017104226863011718
1702338762307189500,20.776189453125,0.006562437862157822,-0.005166174378246069,-0.0020420351065695286
1702338762406453800,20.875453857421874,0.006440265104174614,-0.005654866807162762,-0.003351032268255949
1702338762505716200,20.97471630859375,0.005305801052600145,-0.004869468510150909,-0.0027925267349928617
1702338762604980200,21.073980224609375,0.006562437862157822,-0.004904375411570072,-0.0020943949930369854
1702338762704242700,21.17324267578125,0.006457718089222908,-0.0051312679424881935,-0.002827433403581381
1702338762803506700,21.272506591796876,0.005288347601890564,-0.005410520825535059,-0.0015707963611930609
1702338762902769200,21.37176904296875,0.005777040030807257,-0.004956734832376242,-0.0020769417751580477
1702338763002033400,21.471033447265626,0.0057072266936302185,-0.005619960371404886,-0.001972222002223134
1702338763101295900,21.5702958984375,0.004188789986073971,-0.004363323096185923,-0.001658062799833715
1702338763200558300,21.669558349609375,0.004782202187925577,-0.007103490177541971,-0.0020943949930369854
1702338763299822300,21.768822265625,0.005462880712002516,-0.0046774824149906635,-0.0019373154500499368
1702338763399086300,21.86808642578125,0.00548033369705081,-0.00457276264205575,-0.002024581888690591
1702338763498349000,21.96734912109375,0.005305801052600145,-0.005829399451613426,-0.00062831852119416
1702338763597611500,22.066611572265625,0.004310963209718466,-0.005619960371404886,-0.00251327408477664
1702338763696875500,22.16587548828125,0.005899212788790464,-0.005846852902323008,-0.002722713630646467
1702338763796138000,22.265137939453126,0.00663225119933486,-0.006248278543353081,-0.002460914198309183
1702338763895402000,22.364402099609375,0.005916666239500046,-0.006702064536511898,-0.0029845130629837513
1702338763994666200,22.463666259765624,0.006248278543353081,-0.004817108623683453,-0.0011868239380419254
1702338764093927200,22.56292724609375,0.005201081279665232,-0.004904375411570072,-0.002600540639832616
1702338764193191200,22.662191162109377,0.0067544239573180676,-0.007208209950476885,-0.0020943949930369854
1702338764292453600,22.76145361328125,0.005759586580097675,-0.005515240598469973,-0.002373647876083851
1702338764391717600,22.860717529296874,0.00593411922454834,-0.004747295752167702,-0.002024581888690591
1702338764490980000,22.95997998046875,0.006195918656885624,-0.005759586580097675,-0.002914699725806713
1702338764590244400,23.059244384765623,0.006440265104174614,-0.005201081279665232,-0.001117010717280209
1702338764689506800,23.1585068359375,0.005532693583518267,-0.004974188283085823,-0.0029845130629837513
1702338764788770800,23.257770751953124,0.006667157635092735,-0.0039618974551558495,-0.0023387412074953318
1702338764888034800,23.357034912109373,0.005567600484937429,-0.005794493015855551,-0.00251327408477664
1702338764987297300,23.45629736328125,0.006126105785369873,-0.006841690745204687,-0.0024958208668977022
1702338765086560000,23.55556005859375,0.005951572675257921,-0.003525565145537257,-0.0006806784076616168
1702338765185824000,23.654823974609375,0.006021386012434959,-0.005742133129388094,-0.0020943949930369854
1702338765285088000,23.754087890625,0.006475171539932489,-0.00548033369705081,-0.0018500490114092827
1702338765384349000,23.853348876953124,0.006352998316287994,-0.006248278543353081,-0.002478367416188121
1702338765483613000,23.952613037109376,0.006422811653465033,-0.005375613924115896,-0.002373647876083851
1702338765582875600,24.051875732421873,0.0061610122211277485,-0.006248278543353081,-0.0018500490114092827
1702338765682139600,24.1511396484375,0.005515240598469973,-0.005166174378246069,-0.002373647876083851
1702338765781402000,24.250402099609374,0.006056292448192835,-0.0055850534699857235,-0.0020943949930369854
1702338765880666000,24.349666015625,0.006056292448192835,-0.005515240598469973,-0.0018151424592360854
1702338765979928600,24.448928466796875,0.005794493015855551,-0.005829399451613426,-0.0022165682166814804
1702338766079192800,24.54819287109375,0.005916666239500046,-0.00472984230145812,-0.0021816615480929613
1702338766178455300,24.647455322265625,0.005846852902323008,-0.005113814491778612,-0.0016755161341279745
1702338766277719300,24.74671923828125,0.005375613924115896,-0.006806783843785524,-0.001518436474725604
1702338766376981800,24.845981689453126,0.005794493015855551,-0.006702064536511898,-0.0009075712296180427
1702338766476244200,24.945244140625,0.006073745898902416,-0.00708603672683239,-0.0013788101496174932
1702338766575508200,25.04450830078125,0.0042236968874931335,-0.005375613924115896,-0.0022689281031489372
1702338766674771000,25.14377099609375,0.006195918656885624,-0.009162978269159794,-0.0027576202992349863
1702338766774035000,25.243034912109376,0.006475171539932489,-0.00563741335645318,-0.0023387412074953318
1702338766873297400,25.34229736328125,0.006108652334660292,-0.005061454605311155,-0.003001966280862689
1702338766972561400,25.4415615234375,0.005340707488358021,-0.00502654816955328,-0.0018151424592360854
1702338767071824000,25.540823974609374,0.006457718089222908,-0.00678933085873723,-0.0026703537441790104
1702338767171088100,25.640088134765627,0.005166174378246069,-0.005113814491778612,-0.0027925267349928617
1702338767270350600,25.7393505859375,0.006422811653465033,-0.005410520825535059,-0.00331612559966743
1702338767369614600,25.838614501953124,0.005358160939067602,-0.007033676840364933,-0.002548180753365159
1702338767468877000,25.937876953125,0.005393067374825478,-0.006318091880530119,-0.002024581888690591
1702338767568141000,26.03714111328125,0.006213372107595205,-0.0034732052590698004,-0.0013264502631500363
1702338767667403800,26.13640380859375,0.005515240598469973,-0.005777040030807257,-0.0026179938577115536
1702338767766666200,26.235666259765626,0.005899212788790464,-0.0051312679424881935,-0.0005410520825535059
1702338767865930200,26.33493017578125,0.007470009382814169,-0.006527531426399946,-0.0031939526088535786
1702338767965192700,26.434192626953124,0.0062831854447722435,-0.004886921960860491,-0.0025830871891230345
1702338768064456700,26.533456787109376,0.0074525559321045876,-0.006719517521560192,-0.00251327408477664
1702338768163719200,26.63271923828125,0.005288347601890564,-0.005602506920695305,-0.0024958208668977022
1702338768262983400,26.7319833984375,0.0060388389974832535,-0.005742133129388094,-0.002146754879504442
1702338768362246000,26.831245849609374,0.005602506920695305,-0.005672320257872343,-0.0033684854861348867
1702338768461510000,26.930510009765626,0.005288347601890564,-0.00472984230145812,-0.00022689280740451068
1702338768560772400,27.0297724609375,0.0057246801443398,-0.004607669077813625,-0.0009948377264663577
1702338768660036400,27.129036376953124,0.006108652334660292,-0.0034208453726023436,-0.0014486232539638877
1702338768759299000,27.228299072265624,0.0063355453312397,-0.006318091880530119,-0.0021293016616255045
1702338768858561500,27.3275615234375,0.00593411922454834,-0.006702064536511898,-0.0026703537441790104
1702338768957825500,27.426825439453125,0.005061454605311155,-0.004852015525102615,-0.0021293016616255045
1702338769057088000,27.526087890625,0.00518362782895565,-0.01014036312699318,-0.0018500490114092827
1702338769156352000,27.62535205078125,0.0051312679424881935,-0.007504915818572044,-0.0018500490114092827
1702338769255614500,27.724614501953123,0.006771877408027649,-0.005951572675257921,-0.002321287989616394
1702338769354878700,27.823878662109376,0.0057072266936302185,-0.00518362782895565,-0.002478367416188121
1702338769454142700,27.923142822265625,0.005986479111015797,-0.006387905217707157,-0.00188495556358248
1702338769553405200,28.0224052734375,0.005969026125967503,0.025499260053038597,-0.016231561079621315
1702338769652667600,28.121667724609374,0.005218534264713526,-0.018168877810239792,0.0003316125657875091
1702338769751931600,28.220931640625,0.006387905217707157,-0.005166174378246069,0.000017453292457503267
1702338769851194400,28.3201943359375,0.0055850534699857235,-0.007853982038795948,-0.0020769417751580477
1702338769950458400,28.419458251953124,0.006894050631672144,-0.0052534411661326885,-0.003228859044611454
1702338770049720800,28.518720947265624,0.005951572675257921,-0.001518436474725604,-0.003490658476948738
1702338770148983300,28.6179833984375,0.006003932561725378,-0.011833332479000092,0.0010995573829859495
1702338770248245800,28.717245849609377,0.005340707488358021,-0.006771877408027649,-0.000017453292457503267
1702338770347510000,28.816510009765626,0.004363323096185923,-0.007138396613299847,-0.002321287989616394
1702338770446774000,28.91577392578125,0.006719517521560192,-0.0040317103266716,-0.0023911010939627886
1702338770546036500,29.015036376953127,0.005445427261292934,-0.00502654816955328,-0.0025307273026555777
1702338770645300500,29.114300537109376,0.00563741335645318,-0.00783652812242508,-0.0013788101496174932
1702338770744563000,29.21356298828125,0.006841690745204687,-0.010524335317313671,-0.002024581888690591
1702338770843825400,29.312825439453125,0.006248278543353081,-0.01080358773469925,-0.0023561944253742695
1702338770943089700,29.412089599609374,0.005515240598469973,-0.008045967668294907,-0.0040317103266716
1702338771042353700,29.511353759765626,0.005829399451613426,-0.0028797932900488377,-0.0044156829826533794
1702338771141616000,29.6106162109375,0.006702064536511898,-0.0024958208668977022,-0.0006981316837482154
1702338771240878600,29.709878662109375,0.006021386012434959,-0.002548180753365159,-0.0020769417751580477
1702338771340142600,29.809142578125,0.006021386012434959,-0.005375613924115896,-0.0029321531765162945
1702338771439405300,29.9084052734375,0.005427973810583353,-0.005340707488358021,-0.003089232835918665
1702338771538667800,30.007667724609377,0.006440265104174614,-0.004886921960860491,-0.0014137167017906904
1702338771637931800,30.106931884765626,0.004258603323251009,-0.007941247895359993,-0.003351032268255949
1702338771737194200,30.2061943359375,0.007295476272702217,-0.00724311638623476,-0.0023038345389068127
1702338771836458200,30.305458251953127,0.005864306353032589,-0.005201081279665232,-0.00251327408477664
1702338771935721000,30.404720947265623,0.006928957067430019,-0.004014257341623306,-0.004066617228090763
1702338772034985000,30.50398486328125,0.004433136433362961,-0.00890117883682251,-0.001658062799833715
1702338772134247400,30.603247314453125,0.005358160939067602,-0.006928957067430019,-0.0016231562476605177
1702338772233511400,30.702511474609373,0.006440265104174614,-0.0052534411661326885,-0.002722713630646467
1702338772332774000,30.80177392578125,0.006003932561725378,-0.00518362782895565,-0.0024260077625513077
1702338772432038100,30.9010380859375,0.0067369709722697735,-0.005061454605311155,-0.002286381321027875
1702338772531302100,31.00030224609375,0.0052534411661326885,-0.004782202187925577,-0.0018500490114092827
1702338772630564600,31.099564697265624,0.005742133129388094,-0.0020769417751580477,-0.0027925267349928617
1702338772729827000,31.1988271484375,0.005846852902323008,-0.007435102481395006,-0.0014486232539638877
1702338772829091000,31.298091064453125,0.006300638429820538,-0.004747295752167702,-0.0025656339712440968
1702338772928353500,31.397353515625,0.005044001620262861,-0.0033684854861348867,-0.00010471975838299841
1702338773027616300,31.4966162109375,0.0045553091913461685,-0.004921828396618366,-0.0012391837080940604
1702338773126880300,31.59588037109375,0.005550147034227848,-0.005777040030807257,-0.003455751808360219
1702338773226142700,31.695142822265623,0.005427973810583353,-0.005270894151180983,-0.0019547687843441963
1702338773325406700,31.79440673828125,0.0070685832761228085,-0.005078908056020737,-0.0026703537441790104
1702338773424669200,31.893669189453124,0.004852015525102615,-0.006073745898902416,-0.002722713630646467
1702338773523933400,31.992933349609373,0.005619960371404886,-0.004485496319830418,-0.0029321531765162945
1702338773623196000,32.09219580078125,0.005462880712002516,-0.004328416660428047,-0.0019198621157556772
1702338773722460000,32.1914599609375,0.006527531426399946,-0.004153883550316095,-0.0013962633674964309
1702338773821724000,32.29072387695312,0.005899212788790464,-0.005916666239500046,-0.0016406094655394554
1702338773920986400,32.389986328125,0.005323254037648439,-0.005777040030807257,-0.0019373154500499368
1702338774020249000,32.4892490234375,0.004904375411570072,-0.007173303049057722,-0.0020769417751580477
1702338774119511600,32.588511474609376,0.004694935865700245,-0.005654866807162762,-0.0006806784076616168
1702338774218775600,32.68777563476562,0.004747295752167702,-0.004747295752167702,-0.001658062799833715
1702338774318038000,32.7870380859375,0.004869468510150909,-0.006056292448192835,-0.0014486232539638877
1702338774417302000,32.886302001953126,0.006003932561725378,-0.004660028964281082,-0.0021816615480929613
1702338774516564500,32.985564453125,0.00593411922454834,-0.005532693583518267,-0.0019896754529327154
1702338774615828700,33.084828857421876,0.0055850534699857235,-0.0063355453312397,-0.0025830871891230345
1702338774715091200,33.18409130859375,0.006195918656885624,-0.005742133129388094,-0.0020420351065695286
1702338774814355200,33.28335522460937,0.0067544239573180676,-0.0046774824149906635,-0.002146754879504442
1702338774913617700,33.38261767578125,0.0060388389974832535,-0.005532693583518267,-0.0019198621157556772
1702338775012881700,33.48188159179688,0.005777040030807257,-0.006021386012434959,-0.00188495556358248
1702338775112144400,33.581144287109375,0.0057072266936302185,-0.00457276264205575,-0.0006457717972807586
1702338775211406800,33.68040673828125,0.005969026125967503,-0.005497787147760391,-0.0019024088978767395
1702338775310670800,33.7796708984375,0.0061610122211277485,-0.004834562074393034,-0.00251327408477664
1702338775409933300,33.878933349609376,0.006213372107595205,-0.006126105785369873,-0.0024958208668977022
1702338775509197300,33.978197265625,0.006387905217707157,-0.006911503616720438,-0.0020943949930369854
1702338775608459800,34.077459716796874,0.0068765971809625626,-0.00548033369705081,-0.0015009831404313445
1702338775707724000,34.17672412109375,0.0067369709722697735,-0.005864306353032589,-0.002321287989616394
1702338775806986500,34.27598657226562,0.005829399451613426,-0.00518362782895565,-0.0024085543118417263
1702338775906250500,34.37525048828125,0.004904375411570072,-0.005462880712002516,-0.0017104226863011718
1702338776005513000,34.47451293945313,0.005986479111015797,-0.003926991019397974,-0.0024958208668977022
1702338776104777000,34.57377685546875,0.0071907564997673035,-0.015219271183013916,-0.004450589418411255
1702338776204039700,34.67303979492188,0.0063355453312397,-0.004450589418411255,-0.0019198621157556772
1702338776303303700,34.7723037109375,0.005811946466565132,-0.0034382985904812813,-0.0023561944253742695
1702338776402566100,34.871566162109374,0.004310963209718466,-0.007888888008892536,0.0007679448463022709
1702338776501830100,34.970830078125,0.005619960371404886,-0.0047996556386351585,-0.0011519172694534063
1702338776601092600,35.07009252929687,0.00617846567183733,-0.005462880712002516,-0.0005934119690209627
1702338776700355300,35.169355224609376,0.005916666239500046,-0.004747295752167702,-0.001117010717280209
1702338776799619300,35.26861938476563,0.006370451766997576,-0.003298672381788492,-0.0021118484437465668
1702338776898881800,35.3678818359375,0.005497787147760391,-0.004712388850748539,-0.002251474652439356
1702338776998145800,35.467145751953126,0.004660028964281082,-0.005113814491778612,-0.0025830871891230345
1702338777097408300,35.566408203125,0.007609635591506958,-0.005148721393197775,-0.0022165682166814804
1702338777196672500,35.665672607421875,0.006963863503187895,-0.0037873645778745413,-0.0030717793852090836
1702338777295935000,35.76493505859375,0.00563741335645318,-0.004380776546895504,-0.0020769417751580477
1702338777395199000,35.86419897460937,0.006702064536511898,-0.003857177682220936,-0.0017976891249418259
1702338777494461400,35.96346142578125,0.006352998316287994,-0.003263765713199973,-0.0008552113431505859
1702338777593725400,36.06272534179688,0.00663225119933486,-0.00563741335645318,-0.001029744278639555
1702338777692988000,36.16198779296875,0.005078908056020737,-0.005393067374825478,-0.0023038345389068127
1702338777792250600,36.26125073242188,0.005969026125967503,-0.0040317103266716,-0.0009599310578778386
1702338777891514600,36.3605146484375,0.005881759338080883,-0.0066147977486252785,-0.0008901178953237832
1702338777990777000,36.459777099609376,0.004834562074393034,-0.005654866807162762,-0.0017627825727686286
1702338778090041000,36.559041015625,0.006108652334660292,-0.0038397242315113544,-0.0018675023457035422
1702338778189303600,36.65830346679687,0.005427973810583353,-0.006056292448192835,-0.0019547687843441963
1702338778288567800,36.75756787109375,0.004904375411570072,-0.006841690745204687,-0.0026179938577115536
1702338778387830300,36.85683032226562,0.004834562074393034,-0.005794493015855551,-0.0023911010939627886
1702338778487094300,36.95609423828125,0.00563741335645318,-0.004869468510150909,-0.002478367416188121
1702338778586356700,37.05535668945313,0.005305801052600145,-0.006981316953897476,-0.0026179938577115536
1702338778685620700,37.15462084960937,0.004782202187925577,-0.005986479111015797,-0.002740166848525405
1702338778784883500,37.25388354492188,0.005148721393197775,-0.005375613924115896,-0.0014486232539638877
1702338778884147500,37.3531474609375,0.00472984230145812,-0.006126105785369873,-0.002024581888690591
1702338778983410000,37.452409912109374,0.005689773242920637,-0.006579891312867403,-0.0023561944253742695
1702338779082674000,37.551673828125,0.005689773242920637,-0.0051312679424881935,-0.0014137167017906904
1702338779181936400,37.65093627929687,0.005864306353032589,-0.005864306353032589,-0.0015882495790719986
1702338779281198800,37.75019873046875,0.005846852902323008,-0.006422811653465033,-0.0032463124953210354
1702338779380461600,37.84946166992187,0.006963863503187895,-0.006300638429820538,-0.0022165682166814804
1702338779479725600,37.9487255859375,0.006021386012434959,-0.005619960371404886,-0.00251327408477664
1702338779578988000,38.04798803710938,0.00502654816955328,-0.005201081279665232,-0.002740166848525405
1702338779678252000,38.147251953125,0.005916666239500046,-0.00548033369705081,-0.0019547687843441963
1702338779777516000,38.24651611328125,0.006265731994062662,-0.005270894151180983,-0.003228859044611454
1702338779876778800,38.34577880859375,0.007731808349490166,-0.005410520825535059,-0.0021642083302140236
1702338779976041200,38.445041259765624,0.007138396613299847,-0.005044001620262861,-0.002460914198309183
1702338780075305200,38.54430517578125,0.005672320257872343,-0.005654866807162762,-0.0027052604127675295
1702338780174567700,38.64356762695313,0.005881759338080883,-0.005270894151180983,-0.0028797932900488377
1702338780273831700,38.742831787109374,0.006841690745204687,-0.00518362782895565,-0.0026703537441790104
1702338780373094400,38.84209448242188,0.005829399451613426,-0.005550147034227848,-0.0013962633674964309
1702338780472356900,38.94135693359375,0.006230825558304787,-0.0047996556386351585,-0.0023911010939627886
1702338780571620900,39.040620849609375,0.004886921960860491,-0.005532693583518267,-0.002548180753365159
1702338780670883300,39.13988330078125,0.005218534264713526,-0.005777040030807257,-0.0013613568153232336
1702338780770147300,39.23914721679687,0.006562437862157822,-0.005148721393197775,-0.001518436474725604
1702338780869409800,39.33840991210938,0.005375613924115896,-0.006195918656885624,-0.002460914198309183
1702338780968674000,39.43767407226562,0.0057072266936302185,-0.006352998316287994,-0.0015009831404313445
1702338781067936500,39.5369365234375,0.006300638429820538,-0.005044001620262861,-0.002007128670811653
1702338781167200500,39.63620043945313,0.006457718089222908,-0.0042236968874931335,-0.0017802357906475663
1702338781266464500,39.73546459960937,0.005550147034227848,-0.004293509759008884,-0.0026529005263000727
1702338781365727000,39.83472705078125,0.005759586580097675,-0.005654866807162762,-0.002548180753365159
1702338781464989700,39.93398974609375,0.007103490177541971,-0.005288347601890564,-0.0013089969288557768
1702338781564253700,40.033253662109374,0.006318091880530119,-0.005288347601890564,-0.0015533430268988013
1702338781663516200,40.13251611328125,0.005445427261292934,-0.004136430099606514,-0.0017802357906475663
1702338781762778600,40.23177856445312,0.005899212788790464,-0.004921828396618366,-0.002024581888690591
1702338781862044200,40.331044189453124,0.007225662935525179,-0.006230825558304787,-0.0014486232539638877
1702338781961305000,40.43030517578125,0.006352998316287994,-0.005288347601890564,-0.0017627825727686286
1702338782060569300,40.5295693359375,0.005515240598469973,-0.005201081279665232,-0.0013264502631500363
1702338782159831800,40.62883178710938,0.005410520825535059,-0.004921828396618366,-0.0013788101496174932
1702338782259095800,40.728095703125,0.005497787147760391,-0.00609119888395071,-0.0017627825727686286
1702338782358358300,40.827358154296874,0.004921828396618366,-0.004066617228090763,-0.0025830871891230345
1702338782457622300,40.92662231445313,0.005218534264713526,-0.005550147034227848,-0.0024434609804302454
1702338782556885000,41.025885009765624,0.00617846567183733,-0.004817108623683453,-0.002914699725806713
1702338782656149000,41.12514892578125,0.00593411922454834,-0.004904375411570072,-0.0016755161341279745
1702338782755411500,41.22441137695313,0.004607669077813625,-0.004921828396618366,-0.002373647876083851
1702338782854675500,41.323675537109374,0.006440265104174614,-0.006457718089222908,-0.003717551240697503
1702338782953938000,41.42293798828125,0.0051312679424881935,-0.005061454605311155,-0.0013962633674964309
1702338783053200600,41.52220068359375,0.005916666239500046,-0.0035953782498836517,-0.0032114058267325163
1702338783152464600,41.621464599609375,0.005864306353032589,-0.004869468510150909,-0.002740166848525405
1702338783251727000,41.72072705078125,0.004886921960860491,-0.006981316953897476,-0.0022165682166814804
1702338783350991000,41.8199912109375,0.0055850534699857235,-0.005986479111015797,-0.0018500490114092827
1702338783450253600,41.91925366210938,0.004782202187925577,-0.0046774824149906635,-0.0018500490114092827
1702338783549517800,42.01851782226562,0.0055850534699857235,-0.005078908056020737,-0.0021118484437465668
1702338783648780300,42.1177802734375,0.004590216092765331,-0.006911503616720438,-0.001518436474725604
1702338783748044300,42.21704418945313,0.00563741335645318,-0.0049916417337954044,-0.0016057029133662581
1702338783847306800,42.316306640625,0.004834562074393034,-0.007906341925263405,-0.002321287989616394
1702338783946570800,42.41557080078125,0.00563741335645318,-0.005864306353032589,-0.0015882495790719986
1702338784045833200,42.51483325195313,0.006073745898902416,-0.0045378562062978745,-0.0006981316837482154
1702338784145096000,42.614095947265625,0.005811946466565132,-0.005340707488358021,-0.00188495556358248
1702338784244360000,42.71335986328125,0.005951572675257921,-0.005113814491778612,-0.0021293016616255045
1702338784343624000,42.8126240234375,0.006195918656885624,-0.006073745898902416,-0.0018151424592360854
1702338784442886400,42.911886474609375,0.006265731994062662,-0.004363323096185923,-0.0030194194987416267
1702338784542148900,43.01114892578125,0.005619960371404886,-0.006230825558304787,-0.002460914198309183
1702338784641413000,43.1104130859375,0.006527531426399946,-0.005113814491778612,-0.0016057029133662581
1702338784740675600,43.209675537109376,0.006265731994062662,-0.006300638429820538,-0.002234021434560418
1702338784839939600,43.30893969726562,0.006352998316287994,-0.005515240598469973,-0.0026179938577115536
1702338784939202000,43.4082021484375,0.0047996556386351585,-0.004642575979232788,-0.002827433403581381
1702338785038466000,43.507466064453126,0.005864306353032589,-0.005881759338080883,-0.0019024088978767395
1702338785137728800,43.60672875976562,0.005794493015855551,-0.00724311638623476,-0.0010471974965184927
1702338785236992800,43.70599267578125,0.005113814491778612,-0.0061610122211277485,-0.0029321531765162945
1702338785336255200,43.80525512695313,0.006911503616720438,-0.006457718089222908,-0.0017802357906475663
1702338785435519200,43.90451928710937,0.005969026125967503,-0.005881759338080883,-0.0024434609804302454
1702338785534781700,44.00378173828125,0.006440265104174614,-0.005393067374825478,-0.0021642083302140236
1702338785634044200,44.10304418945312,0.006248278543353081,-0.006702064536511898,-0.0021642083302140236
1702338785733307000,44.202306884765626,0.0060388389974832535,-0.005672320257872343,-0.00205948855727911
1702338785832571000,44.30157080078125,0.0067369709722697735,-0.005532693583518267,-0.0017627825727686286
1702338785931835000,44.4008349609375,0.006265731994062662,-0.005340707488358021,-0.0016231562476605177
1702338786031097300,44.500097412109376,0.007051130291074514,-0.006213372107595205,-0.0022165682166814804
1702338786130361300,44.599361328125,0.006230825558304787,-0.004520402755588293,-0.001483529806137085
1702338786229624000,44.6986240234375,0.006405358202755451,-0.004956734832376242,-0.002024581888690591
1702338786328888000,44.79788818359375,0.006248278543353081,-0.005445427261292934,-0.002286381321027875
1702338786428150500,44.89715063476562,0.005654866807162762,-0.008517206646502018,-0.0010122909443452954
1702338786527414500,44.99641455078125,0.005811946466565132,-0.007435102481395006,-0.002321287989616394
1702338786626677000,45.09567700195313,0.004747295752167702,-0.006265731994062662,-0.0017627825727686286
1702338786725939700,45.194939697265625,0.006475171539932489,-0.005305801052600145,-0.002740166848525405
1702338786825202200,45.2942021484375,0.0051312679424881935,-0.005078908056020737,-0.0009773843921720982
1702338786924466200,45.39346606445312,0.006126105785369873,-0.0063355453312397,-0.003298672381788492
1702338787023728600,45.492728759765626,0.005497787147760391,-0.005951572675257921,-0.002827433403581381
1702338787122992600,45.59199267578125,0.005864306353032589,-0.0037000980228185654,-0.0011693706037476659
1702338787222257000,45.6912568359375,0.005864306353032589,-0.005759586580097675,-0.001745329238474369
1702338787321519400,45.790519287109376,0.006510077975690365,-0.004956734832376242,-0.0015009831404313445
1702338787420783400,45.88978344726563,0.00663225119933486,-0.004660028964281082,-0.0023911010939627886
1702338787520045800,45.9890458984375,0.005829399451613426,-0.006702064536511898,-0.0020420351065695286
1702338787619309800,46.088309814453126,0.0073303827084600925,-0.006928957067430019,-0.0013089969288557768
1702338787718572300,46.187572265625,0.005096361506730318,-0.0047996556386351585,-0.0020420351065695286
1702338787817836500,46.28683642578125,0.005078908056020737,-0.00472984230145812,-0.002687806962057948
1702338787917099000,46.38609912109375,0.005497787147760391,-0.006021386012434959,-0.002234021434560418
1702338788016361500,46.485361572265624,0.006981316953897476,-0.006195918656885624,-0.0021816615480929613
1702338788115625500,46.58462548828125,0.006143558770418167,-0.004712388850748539,-0.0025656339712440968
1702338788214889500,46.68388940429688,0.006562437862157822,-0.006597344763576984,-0.0025656339712440968
1702338788314152200,46.783152099609374,0.005846852902323008,-0.005427973810583353,-0.0023038345389068127
1702338788413414700,46.88241455078125,0.005969026125967503,-0.005340707488358021,-0.002024581888690591
1702338788512678700,46.9816787109375,0.005951572675257921,-0.00518362782895565,-0.002234021434560418
1702338788611941000,47.080941162109376,0.006195918656885624,-0.005829399451613426,-0.0013089969288557768
1702338788711203600,47.18020361328125,0.00678933085873723,-0.005881759338080883,-0.003036872949451208
1702338788810467800,47.2794677734375,0.005410520825535059,-0.00548033369705081,-0.0028448866214603186
1702338788909730300,47.37873022460938,0.0050090947188436985,-0.004642575979232788,-0.0025830871891230345
1702338789008994300,47.47799438476562,0.006352998316287994,-0.005270894151180983,-0.001658062799833715
1702338789108256800,47.5772568359375,0.0060388389974832535,-0.005829399451613426,-0.0015707963611930609
1702338789207520800,47.67652075195313,0.004712388850748539,-0.0038397242315113544,-0.0014660765882581472
1702338789306783200,47.775783203125,0.005916666239500046,-0.0062831854447722435,-0.0024260077625513077
1702338789406047500,47.87504760742188,0.005340707488358021,-0.006003932561725378,-0.0021293016616255045
1702338789505310000,47.97431005859375,0.006073745898902416,-0.005148721393197775,-0.0024085543118417263
1702338789604572400,48.073572509765626,0.0057072266936302185,-0.004398229531943798,-0.0021293016616255045
1702338789703836400,48.17283642578125,0.005497787147760391,-0.0062831854447722435,-0.001518436474725604
1702338789803099000,48.27209887695312,0.006073745898902416,-0.005148721393197775,-0.002949606394395232
1702338789902363100,48.371363037109376,0.0057246801443398,-0.005462880712002516,-0.0028448866214603186
1702338790001625600,48.47062548828125,0.005969026125967503,-0.0049916417337954044,-0.0021293016616255045
1702338790100889600,48.5698896484375,0.005969026125967503,-0.005654866807162762,-0.0016755161341279745
1702338790200152000,48.66915209960938,0.006003932561725378,-0.006405358202755451,-0.002146754879504442
1702338790299416000,48.768416015625,0.005969026125967503,-0.004380776546895504,-0.0025307273026555777
1702338790398678500,48.867678466796875,0.005148721393197775,-0.005986479111015797,-0.0018151424592360854
1702338790497942800,48.96694287109375,0.006771877408027649,-0.005969026125967503,-0.002234021434560418
1702338790597205200,49.066205322265624,0.004590216092765331,-0.0066147977486252785,-0.0026703537441790104
1702338790696469200,49.16546923828125,0.006300638429820538,-0.004607669077813625,-0.00188495556358248
1702338790795731700,49.26473168945312,0.005829399451613426,-0.006003932561725378,-0.0013089969288557768
1702338790894994200,49.363994140625,0.006457718089222908,-0.00518362782895565,-0.0012217304902151227
1702338790994258400,49.46325854492188,0.005742133129388094,-0.005462880712002516,-0.0024958208668977022
1702338791093521000,49.56252099609375,0.005811946466565132,-0.004834562074393034,-0.0018325956771150231
1702338791192785000,49.661784912109376,0.005113814491778612,-0.006143558770418167,-0.0026529005263000727
1702338791292047400,49.76104736328125,0.0061610122211277485,-0.004869468510150909,-0.003054326167330146
1702338791391311400,49.86031127929687,0.005742133129388094,-0.005689773242920637,-0.002007128670811653
1702338791490574000,49.95957397460938,0.0060388389974832535,-0.0052534411661326885,-0.0017627825727686286
1702338791589838000,50.05883813476562,0.005497787147760391,-0.005951572675257921,-0.0019896754529327154
1702338791689100500,50.1581005859375,0.0061610122211277485,-0.005759586580097675,-0.00188495556358248
1702338791788364500,50.25736450195313,0.0068765971809625626,-0.004066617228090763,-0.0020769417751580477
1702338791887627000,50.356626953125,0.00609119888395071,-0.006370451766997576,-0.002286381321027875
1702338791986889500,50.455889404296876,0.005288347601890564,-0.005427973810583353,-0.0012217304902151227
1702338792086153700,50.55515380859375,0.006056292448192835,-0.0060388389974832535,-0.0018675023457035422
1702338792185416200,50.654416259765625,0.005305801052600145,-0.004782202187925577,-0.0024958208668977022
1702338792284680200,50.75368017578125,0.006370451766997576,-0.005777040030807257,-0.00251327408477664
1702338792383944200,50.85294409179688,0.006213372107595205,-0.0057072266936302185,-0.001972222002223134
1702338792483206700,50.95220654296875,0.00563741335645318,-0.006143558770418167,-0.002007128670811653
1702338792582469400,51.05146948242187,0.006370451766997576,-0.004974188283085823,-0.0016406094655394554
1702338792681733400,51.1507333984375,0.005672320257872343,-0.007347836159169674,-0.0015707963611930609
1702338792780995800,51.24999584960938,0.005323254037648439,-0.005654866807162762,-0.0022165682166814804
1702338792880259800,51.349259765625,0.005742133129388094,-0.005323254037648439,-0.002460914198309183
1702338792979522300,51.448522216796874,0.005811946466565132,-0.004450589418411255,-0.0014660765882581472
1702338793078786600,51.54778662109375,0.005305801052600145,-0.008255407214164734,-0.002199114765971899
1702338793178049000,51.647049072265624,0.005497787147760391,-0.004520402755588293,-0.0023387412074953318
1702338793277311500,51.7463115234375,0.006265731994062662,-0.005462880712002516,-0.0020769417751580477
1702338793376575500,51.84557543945313,0.0052534411661326885,-0.007976154796779156,-0.0028448866214603186
1702338793475838000,51.944837890625,0.005689773242920637,-0.006265731994062662,-0.00251327408477664
1702338793575102200,52.04410229492188,0.006352998316287994,-0.005375613924115896,-0.002373647876083851
1702338793674364700,52.14336474609375,0.005916666239500046,-0.0052534411661326885,-0.0021293016616255045
1702338793773628700,52.242628662109375,0.005811946466565132,-0.005811946466565132,-0.0018151424592360854
1702338793872891100,52.34189111328125,0.006003932561725378,-0.005061454605311155,-0.001483529806137085
1702338793972155100,52.44115502929687,0.004485496319830418,-0.0061610122211277485,-0.002146754879504442
1702338794071417600,52.54041748046875,0.0051312679424881935,-0.005951572675257921,-0.0022689281031489372
1702338794170681900,52.63968188476562,0.0062831854447722435,-0.006073745898902416,-0.002286381321027875
1702338794269944300,52.7389443359375,0.006143558770418167,-0.005166174378246069,-0.002286381321027875
1702338794369206800,52.83820678710938,0.004782202187925577,-0.006649704650044441,-0.0030194194987416267
1702338794468470800,52.937470703125,0.004625122528523207,-0.005846852902323008,-0.002722713630646467
1702338794567733200,53.036733154296876,0.006806783843785524,-0.004712388850748539,-0.003351032268255949
1702338794666997500,53.13599755859375,0.005218534264713526,-0.004450589418411255,-0.0016929693520069122
1702338794766260000,53.235260009765625,0.00617846567183733,-0.005358160939067602,-0.0023387412074953318
1702338794865522400,53.3345224609375,0.005375613924115896,-0.006003932561725378,-0.0024434609804302454
1702338794964786400,53.43378637695312,0.006108652334660292,-0.005044001620262861,-0.001483529806137085
1702338795064050400,53.533050537109375,0.005864306353032589,-0.004084070213139057,-0.0015707963611930609
1702338795163313200,53.63231323242187,0.005742133129388094,-0.005235987715423107,-0.0028448866214603186
1702338795262575600,53.73157568359375,0.005846852902323008,-0.006405358202755451,-0.001972222002223134
1702338795361839600,53.83083959960938,0.006475171539932489,-0.004520402755588293,-0.002949606394395232
1702338795461103600,53.930103515625,0.006195918656885624,-0.005864306353032589,-0.001343903481028974
1702338795560366000,54.029365966796874,0.006579891312867403,-0.006195918656885624,-0.00251327408477664
1702338795659630300,54.12863037109375,0.005916666239500046,-0.006998770404607058,-0.002949606394395232
1702338795758892800,54.22789282226562,0.005689773242920637,-0.00472984230145812,-0.00251327408477664
1702338795858155300,54.3271552734375,0.006318091880530119,-0.0052534411661326885,-0.002251474652439356
1702338795957419300,54.42641918945313,0.004782202187925577,-0.006021386012434959,-0.002722713630646467
1702338796056681700,54.525681640625,0.004939281847327948,-0.005619960371404886,-0.002827433403581381
1702338796155945700,54.62494580078125,0.005742133129388094,-0.005689773242920637,-0.002286381321027875
1702338796255208400,54.72420849609375,0.005410520825535059,-0.006527531426399946,-0.0021118484437465668
1702338796354471000,54.823470947265626,0.005742133129388094,-0.006387905217707157,-0.0021816615480929613
1702338796453735000,54.92273486328125,0.006457718089222908,-0.005794493015855551,-0.0017278759041801095
1702338796552999000,55.0219990234375,0.005462880712002516,-0.005462880712002516,-0.002722713630646467
1702338796652261400,55.121261474609376,0.005969026125967503,-0.005619960371404886,-0.0017627825727686286
1702338796751523800,55.22052392578125,0.0061610122211277485,-0.005794493015855551,-0.002914699725806713
1702338796850788000,55.3197880859375,0.006003932561725378,-0.005201081279665232,-0.0023038345389068127
1702338796950050600,55.41905053710938,0.005323254037648439,-0.005567600484937429,-0.0008726646192371845
1702338797049314600,55.518314453125,0.005881759338080883,-0.004956734832376242,-0.0019024088978767395
1702338797148577000,55.617576904296875,0.005794493015855551,-0.005061454605311155,-0.0023038345389068127
1702338797247839500,55.71683959960937,0.006405358202755451,-0.005567600484937429,-0.0028448866214603186
1702338797347103700,55.816103759765625,0.005078908056020737,-0.006126105785369873,-0.0019024088978767395
1702338797446366200,55.9153662109375,0.006422811653465033,-0.006405358202755451,-0.00188495556358248
1702338797545630200,56.01463012695312,0.0046774824149906635,-0.0047996556386351585,-0.002024581888690591
1702338797644892700,56.113892578125,0.005951572675257921,-0.0055850534699857235,-0.0021118484437465668
1702338797744156700,56.21315673828125,0.005445427261292934,-0.006318091880530119,-0.001658062799833715
1702338797843419400,56.31241943359375,0.006126105785369873,-0.006003932561725378,-0.00205948855727911
1702338797942683400,56.411683349609376,0.006213372107595205,-0.0057246801443398,-0.0016231562476605177
1702338798041945900,56.51094580078125,0.005619960371404886,-0.00563741335645318,-0.002199114765971899
1702338798141209900,56.6102099609375,0.006003932561725378,-0.006894050631672144,-0.0030717793852090836
1702338798240472300,56.70947241210938,0.006649704650044441,-0.0057246801443398,-0.0013962633674964309
1702338798339736600,56.80873657226562,0.006806783843785524,-0.005445427261292934,-0.0026529005263000727
1702338798438999000,56.9079990234375,0.006510077975690365,-0.00663225119933486,-0.00143117003608495
1702338798538261500,57.00726147460937,0.0052534411661326885,-0.006824237294495106,-0.0020769417751580477
1702338798637525500,57.106525390625,0.005393067374825478,-0.005794493015855551,-0.001745329238474369
1702338798736788000,57.2057880859375,0.00609119888395071,-0.005340707488358021,-0.0016755161341279745
1702338798836052000,57.30505200195312,0.006073745898902416,-0.00708603672683239,-0.00205948855727911
1702338798935314700,57.404314697265626,0.007382742594927549,-0.006213372107595205,-0.0021816615480929613
1702338799034578700,57.50357861328125,0.004590216092765331,-0.005567600484937429,-0.002478367416188121
1702338799133841200,57.60284106445312,0.005672320257872343,-0.005689773242920637,-0.0016406094655394554
1702338799233105200,57.702105224609376,0.005393067374825478,-0.006649704650044441,-0.0021118484437465668
1702338799332367600,57.80136767578125,0.005044001620262861,-0.0057072266936302185,-0.0017976891249418259
1702338799431632000,57.9006318359375,0.00518362782895565,-0.003490658476948738,-0.004206243436783552
1702338799530894300,57.99989428710938,0.005375613924115896,-0.0034732052590698004,-0.0019896754529327154
1702338799630158300,58.09915844726562,0.006597344763576984,-0.00617846567183733,-0.002460914198309183
1702338799729420800,58.1984208984375,0.005777040030807257,-0.004869468510150909,-0.0015882495790719986
1702338799828683300,58.29768334960937,0.006300638429820538,-0.006527531426399946,-0.002199114765971899
1702338799927947500,58.396947509765624,0.006352998316287994,-0.004625122528523207,-0.0020420351065695286
1702338800027210000,58.4962099609375,0.0057072266936302185,-0.005689773242920637,-0.002007128670811653
1702338800126474000,58.59547387695312,0.006527531426399946,-0.004904375411570072,-0.0020943949930369854
1702338800225736400,58.694736328125,0.006318091880530119,-0.005515240598469973,-0.003630284918472171
1702338800325000400,58.79400048828125,0.006719517521560192,-0.0050090947188436985,-0.0008377580670639873
1702338800424263000,58.89326293945312,0.006527531426399946,-0.005462880712002516,-0.0023387412074953318
1702338800523527200,58.992527099609376,0.006597344763576984,-0.005340707488358021,-0.0017627825727686286
1702338800622789600,59.09178955078125,0.005061454605311155,-0.006527531426399946,-0.002286381321027875
1702338800722053600,59.1910537109375,0.0057246801443398,-0.005811946466565132,-0.0026529005263000727
1702338800821316000,59.29031616210938,0.005829399451613426,-0.0066147977486252785,-0.0019198621157556772
1702338800920578600,59.38957861328125,0.0071907564997673035,-0.00563741335645318,-0.0019547687843441963
1702338801019842800,59.4888427734375,0.006562437862157822,-0.004206243436783552,-0.0016057029133662581
1702338801119105300,59.58810522460937,0.00609119888395071,-0.005794493015855551,-0.0016929693520069122
1702338801218369300,59.687369384765624,0.006928957067430019,-0.005270894151180983,-0.0020420351065695286
1702338801317631700,59.7866318359375,0.006318091880530119,-0.004904375411570072,-0.0017627825727686286
1702338801416895700,59.88589575195312,0.006824237294495106,-0.004694935865700245,-0.003054326167330146
1702338801516158500,59.985158447265626,0.004694935865700245,-0.006108652334660292,-0.0016929693520069122
1702338801615422500,60.08442236328125,0.005864306353032589,-0.004607669077813625,-0.0015009831404313445
1702338801714686500,60.1836865234375,0.006597344763576984,-0.0051312679424881935,-0.0032463124953210354
1702338801813949000,60.282948974609376,0.006352998316287994,-0.006911503616720438,-0.0016929693520069122
1702338801913211400,60.38221142578125,0.005323254037648439,-0.006440265104174614,-0.0029845130629837513
1702338802012475600,60.4814755859375,0.005305801052600145,-0.006073745898902416,-0.0017976891249418259
1702338802111738000,60.58073803710938,0.006073745898902416,-0.005550147034227848,-0.002251474652439356
1702338802211000600,60.68000048828125,0.006946410518139601,-0.00548033369705081,-0.0017627825727686286
1702338802310264600,60.7792646484375,0.005777040030807257,-0.006422811653465033,-0.0016406094655394554
1702338802409527000,60.87852709960937,0.006003932561725378,-0.003909537568688393,-0.0015707963611930609
1702338802508789500,60.97778955078125,0.005899212788790464,-0.006003932561725378,-0.0026179938577115536
1702338802608053800,61.0770537109375,0.004502949304878712,-0.005829399451613426,-0.0019373154500499368
1702338802707317800,61.17631787109375,0.005532693583518267,-0.0045553091913461685,-0.0017976891249418259
1702338802806580200,61.275580322265625,0.006300638429820538,-0.004817108623683453,-0.0026179938577115536
1702338802905844200,61.37484423828125,0.004852015525102615,-0.0066147977486252785,-0.003054326167330146
1702338803005106700,61.47410668945312,0.006003932561725378,-0.006021386012434959,-0.002914699725806713
1702338803104371000,61.573370849609375,0.0051312679424881935,-0.0037350046914070845,-0.00251327408477664
1702338803203633400,61.67263330078125,0.006230825558304787,-0.005916666239500046,-0.002827433403581381
1702338803302897400,61.7718974609375,0.005759586580097675,-0.0057072266936302185,-0.0021816615480929613
1702338803402159900,61.87115991210938,0.006370451766997576,-0.006318091880530119,-0.0016231562476605177
1702338803501422300,61.97042236328125,0.00609119888395071,-0.005742133129388094,-0.002146754879504442
1702338803600686300,62.069686279296874,0.005864306353032589,-0.004380776546895504,-0.0022165682166814804
1702338803699949000,62.16894897460938,0.006318091880530119,-0.007138396613299847,-0.0016057029133662581
1702338803799211500,62.26821142578125,0.006684611085802317,-0.006003932561725378,-0.0027925267349928617
1702338803898475500,62.3674755859375,0.006457718089222908,-0.00427605677396059,-0.0017278759041801095
1702338803997738000,62.46673803710937,0.005462880712002516,-0.006544984877109528,-0.001483529806137085
1702338804097002000,62.566001953125,0.005969026125967503,-0.0067544239573180676,-0.002007128670811653
1702338804196266200,62.66526635742188,0.0057246801443398,-0.005393067374825478,-0.003263765713199973
1702338804295528700,62.76452880859375,0.004852015525102615,-0.005899212788790464,-0.0023911010939627886
1702338804394792700,62.863792724609375,0.006352998316287994,-0.006056292448192835,-0.0023387412074953318
1702338804494055200,62.96305517578125,0.0055850534699857235,-0.0055850534699857235,-0.0021118484437465668
1702338804593317600,63.062317626953124,0.006527531426399946,-0.0034208453726023436,-0.0026354470755904913
1702338804692582000,63.16158178710938,0.006195918656885624,-0.005270894151180983,-0.002460914198309183
1702338804791844400,63.26084423828125,0.0057246801443398,-0.007033676840364933,-0.002687806962057948
1702338804891108400,63.3601083984375,0.005427973810583353,-0.005881759338080883,-0.0018325956771150231
1702338804990370800,63.45937084960938,0.0063355453312397,-0.00548033369705081,-0.0023911010939627886
1702338805089633300,63.55863330078125,0.006126105785369873,-0.0049916417337954044,-0.002007128670811653
1702338805188897300,63.657897216796876,0.006649704650044441,-0.00593411922454834,-0.0018151424592360854
1702338805288160000,63.75715991210937,0.006597344763576984,-0.006213372107595205,-0.00094247778179124
1702338805387424000,63.856424072265625,0.005550147034227848,-0.004049163777381182,-0.0034732052590698004
1702338805486686500,63.9556865234375,0.006440265104174614,-0.0050090947188436985,-0.0019373154500499368
1702338805585950500,64.05495043945312,0.006230825558304787,-0.006457718089222908,-0.0019373154500499368
1702338805685213000,64.154212890625,0.006021386012434959,-0.005689773242920637,-0.002251474652439356
1702338805784477200,64.25347729492188,0.006073745898902416,-0.0061610122211277485,-0.0025656339712440968
1702338805883739600,64.35273974609375,0.006195918656885624,-0.0057072266936302185,-0.001745329238474369
1702338805983003600,64.45200366210938,0.005881759338080883,-0.006457718089222908,-0.0021642083302140236
1702338806082266000,64.55126611328124,0.006946410518139601,-0.004607669077813625,-0.0019547687843441963
1702338806181528600,64.65052856445313,0.006597344763576984,-0.005148721393197775,-0.0031415927223861217
1702338806280792800,64.74979272460938,0.005881759338080883,-0.005759586580097675,-0.002827433403581381
1702338806380055300,64.84905517578125,0.0067544239573180676,-0.007347836159169674,-0.0019024088978767395
1702338806479319300,64.9483193359375,0.006405358202755451,-0.003996803890913725,-0.0019373154500499368
1702338806578581800,65.04758178710938,0.0060388389974832535,-0.005288347601890564,-0.00188495556358248
1702338806677845800,65.146845703125,0.006248278543353081,-0.006981316953897476,-0.0021642083302140236
1702338806777108200,65.24610815429688,0.00563741335645318,-0.005358160939067602,-0.002199114765971899
1702338806876372500,65.34537255859375,0.005794493015855551,-0.00548033369705081,-0.0029321531765162945
1702338806975635000,65.44463500976562,0.00617846567183733,-0.005777040030807257,-0.0029845130629837513
1702338807074899000,65.54389892578125,0.006213372107595205,-0.005497787147760391,-0.0026354470755904913
1702338807174161400,65.64316137695313,0.006230825558304787,-0.005794493015855551,-0.003263765713199973
1702338807273424000,65.742423828125,0.0046774824149906635,-0.005777040030807257,-0.0019024088978767395
1702338807372688100,65.84168823242187,0.007051130291074514,-0.0045553091913461685,-0.002234021434560418
1702338807471950600,65.94095068359375,0.006492624990642071,-0.005777040030807257,-0.003001966280862689
1702338807571214600,66.04021459960937,0.005515240598469973,-0.0066147977486252785,-0.0017278759041801095
1702338807670477000,66.13947705078125,0.005881759338080883,-0.006527531426399946,-0.00296705961227417
1702338807769741000,66.23874096679687,0.00563741335645318,-0.005113814491778612,-0.0024260077625513077
1702338807869005300,66.33800537109374,0.005742133129388094,-0.006073745898902416,-0.00188495556358248
1702338807968267800,66.43726782226562,0.005654866807162762,-0.0061610122211277485,-0.001972222002223134
1702338808067530200,66.5365302734375,0.005602506920695305,-0.0052534411661326885,-0.0022165682166814804
1702338808166794200,66.63579418945312,0.005515240598469973,-0.006003932561725378,-0.0024434609804302454
1702338808266056700,66.735056640625,0.006597344763576984,-0.004590216092765331,-0.002827433403581381
1702338808365321000,66.83432104492188,0.0057246801443398,-0.004782202187925577,-0.0016929693520069122
1702338808464583400,66.93358349609375,0.006527531426399946,-0.004834562074393034,-0.0027925267349928617
1702338808563847400,67.03284741210938,0.006492624990642071,-0.005777040030807257,-0.0019198621157556772
1702338808663110000,67.13210986328124,0.0052534411661326885,-0.0063355453312397,-0.0020769417751580477
1702338808762372400,67.23137231445313,0.005742133129388094,-0.005235987715423107,-0.0017976891249418259
1702338808861636400,67.33063623046876,0.0055850534699857235,-0.005061454605311155,-0.002460914198309183
1702338808960899000,67.42989916992188,0.00593411922454834,-0.00563741335645318,-0.0019024088978767395
1702338809060163000,67.5291630859375,0.005777040030807257,-0.0057246801443398,-0.002199114765971899
1702338809159425500,67.62842553710938,0.006440265104174614,-0.004852015525102615,-0.0017278759041801095
1702338809258689500,67.727689453125,0.005759586580097675,-0.005410520825535059,-0.0016231562476605177
1702338809357952000,67.82695190429688,0.005829399451613426,-0.005532693583518267,-0.002775073517113924
1702338809457216300,67.92621630859375,0.006597344763576984,-0.006213372107595205,-0.0021293016616255045
1702338809556478700,68.02547875976562,0.005777040030807257,-0.0049916417337954044,-0.0022689281031489372
1702338809655742700,68.12474267578125,0.004817108623683453,-0.0057072266936302185,-0.003228859044611454
1702338809755005200,68.22400512695313,0.005689773242920637,-0.004817108623683453,-0.0016406094655394554
1702338809854269200,68.32326928710937,0.006562437862157822,-0.005078908056020737,-0.0024958208668977022
1702338809953531600,68.42253173828125,0.005689773242920637,-0.005777040030807257,-0.0028623400721699
1702338810052796000,68.5217958984375,0.006649704650044441,-0.005393067374825478,-0.0020769417751580477
1702338810152056800,68.62105688476562,0.005235987715423107,-0.005201081279665232,-0.0026354470755904913
1702338810251320800,68.72032080078125,0.005602506920695305,-0.005096361506730318,-0.0016755161341279745
1702338810350584800,68.81958471679687,0.006126105785369873,-0.005567600484937429,-0.002548180753365159
1702338810449847300,68.91884741210937,0.0047996556386351585,-0.005619960371404886,-0.001745329238474369
1702338810549111600,69.01811157226562,0.0060388389974832535,-0.0057072266936302185,-0.0017278759041801095
1702338810648374000,69.1173740234375,0.006684611085802317,-0.005759586580097675,-0.0025830871891230345
1702338810747636500,69.21663647460937,0.006300638429820538,-0.005462880712002516,-0.0020420351065695286
1702338810846900500,69.315900390625,0.00617846567183733,-0.005166174378246069,-0.0023911010939627886
1702338810946164500,69.41516455078126,0.0051312679424881935,-0.005375613924115896,-0.0021816615480929613
1702338811045427200,69.51442724609375,0.006126105785369873,-0.004956734832376242,-0.00188495556358248
1702338811144689700,69.61368969726563,0.004817108623683453,-0.00563741335645318,-0.0015358896926045418
1702338811243953700,69.71295361328124,0.005602506920695305,-0.006422811653465033,-0.0021816615480929613
1702338811343216000,69.81221606445312,0.00502654816955328,-0.006457718089222908,-0.00094247778179124
1702338811442480000,69.91148022460938,0.005846852902323008,-0.0051312679424881935,-0.0018151424592360854
1702338811541742600,70.01074267578124,0.00663225119933486,-0.005689773242920637,-0.0012042771559208632
1702338811641006800,70.1100068359375,0.007051130291074514,-0.006195918656885624,-0.0026179938577115536
1702338811740269300,70.20926928710938,0.005654866807162762,-0.005218534264713526,-0.002373647876083851
1702338811839533300,70.308533203125,0.00663225119933486,-0.004834562074393034,-0.0023387412074953318
1702338811938795800,70.40779565429688,0.00548033369705081,-0.004607669077813625,-0.002478367416188121
1702338812038059800,70.50705981445313,0.006475171539932489,-0.005794493015855551,-0.0023911010939627886
1702338812137322500,70.60632250976562,0.006527531426399946,-0.006597344763576984,-0.00205948855727911
1702338812236585000,70.7055849609375,0.006841690745204687,-0.0060388389974832535,-0.002827433403581381
1702338812335849000,70.80484887695313,0.005113814491778612,-0.00518362782895565,-0.002548180753365159
1702338812435111400,70.904111328125,0.006021386012434959,-0.006841690745204687,-0.002687806962057948
1702338812534375400,71.00337548828125,0.0049916417337954044,-0.0040317103266716,-0.0013788101496174932
1702338812633638100,71.10263818359375,0.0062831854447722435,-0.006021386012434959,-0.0023561944253742695
1702338812732900600,71.20190063476562,0.0062831854447722435,-0.005794493015855551,-0.001518436474725604
1702338812832164600,71.30116455078125,0.005550147034227848,-0.005829399451613426,-0.002199114765971899
1702338812931427000,71.40042700195312,0.00678933085873723,-0.004974188283085823,-0.0017104226863011718
1702338813030691000,71.49969116210937,0.006056292448192835,-0.006457718089222908,-0.0020943949930369854
1702338813129953500,71.59895361328125,0.005654866807162762,-0.006126105785369873,-0.0023561944253742695
1702338813229217800,71.6982177734375,0.0062831854447722435,-0.005672320257872343,-0.001343903481028974
1702338813328480300,71.79748022460937,0.005445427261292934,-0.0050090947188436985,-0.001658062799833715
1702338813427744300,71.896744140625,0.006492624990642071,-0.005061454605311155,-0.0023038345389068127
1702338813527006700,71.9960068359375,0.006667157635092735,-0.005759586580097675,-0.003281218931078911
1702338813626270700,72.09527075195312,0.004939281847327948,-0.005113814491778612,-0.0012217304902151227
1702338813725533400,72.19453344726563,0.005532693583518267,-0.005340707488358021,-0.0023387412074953318
1702338813824797400,72.29379736328124,0.005811946466565132,-0.005759586580097675,-0.003036872949451208
1702338813924060000,72.39305981445312,0.004747295752167702,-0.005951572675257921,-0.001972222002223134
1702338814023322400,72.492322265625,0.007051130291074514,-0.0050090947188436985,-0.002687806962057948
1702338814122586400,72.59158642578124,0.005881759338080883,-0.004817108623683453,-0.0019373154500499368
1702338814221849000,72.69084912109375,0.005829399451613426,-0.00548033369705081,-0.0026354470755904913
1702338814321113000,72.79011303710938,0.006300638429820538,-0.00593411922454834,-0.0024958208668977022
1702338814420375600,72.88937548828125,0.005881759338080883,-0.004921828396618366,-0.003281218931078911
1702338814519639600,72.9886396484375,0.006667157635092735,-0.005811946466565132,-0.002199114765971899
1702338814618902000,73.08790209960938,0.005881759338080883,-0.005393067374825478,-0.0016057029133662581
1702338814718166300,73.18716625976562,0.0055850534699857235,-0.004625122528523207,-0.0022165682166814804
1702338814817428700,73.2864287109375,0.005532693583518267,-0.004764748737215996,-0.002321287989616394
1702338814916692700,73.38569262695313,0.00593411922454834,-0.0050090947188436985,-0.001518436474725604
1702338815015955200,73.484955078125,0.006649704650044441,-0.0045378562062978745,-0.00125663704238832
1702338815115219200,73.58421923828125,0.005375613924115896,-0.005427973810583353,-0.0019198621157556772
1702338815214481700,73.68348168945313,0.00518362782895565,-0.004642575979232788,-0.001972222002223134
1702338815313744400,73.78274438476562,0.005270894151180983,-0.005410520825535059,-0.0020769417751580477
1702338815413008400,73.88200830078125,0.006597344763576984,-0.005969026125967503,-0.0022689281031489372
1702338815512270800,73.98127075195312,0.005462880712002516,-0.005078908056020737,-0.001658062799833715
1702338815611534800,74.08053491210937,0.005148721393197775,-0.005969026125967503,-0.0026354470755904913
1702338815710797300,74.17979736328125,0.005777040030807257,-0.004956734832376242,-0.0021293016616255045
1702338815810061600,74.2790615234375,0.006318091880530119,-0.00663225119933486,-0.0018675023457035422
1702338815909324000,74.37832397460937,0.005462880712002516,-0.004084070213139057,-0.0027576202992349863
1702338816008588000,74.47758813476563,0.005951572675257921,-0.004834562074393034,-0.00125663704238832
1702338816107850500,74.5768505859375,0.005602506920695305,-0.006248278543353081,-0.0017627825727686286
1702338816207114500,74.67611450195312,0.006126105785369873,-0.005672320257872343,-0.00205948855727911
1702338816306377000,74.775376953125,0.006387905217707157,-0.005427973810583353,-0.002024581888690591
1702338816405639700,74.8746396484375,0.006195918656885624,-0.006265731994062662,-0.0025830871891230345
1702338816504903700,74.97390356445312,0.005445427261292934,-0.005375613924115896,-0.0026529005263000727
1702338816604166100,75.07316625976563,0.006213372107595205,-0.005619960371404886,-0.0030717793852090836
1702338816703430100,75.17243017578124,0.006248278543353081,-0.006108652334660292,-0.0018325956771150231
1702338816802692600,75.27169262695313,0.006510077975690365,-0.004834562074393034,-0.002146754879504442
1702338816901956900,75.37095678710938,0.005410520825535059,-0.006021386012434959,-0.00251327408477664
1702338817001219300,75.47021923828125,0.006859143730252981,-0.0060388389974832535,-0.0018325956771150231
1702338817100483300,75.5694833984375,0.005672320257872343,-0.005951572675257921,-0.002146754879504442
1702338817199745800,75.66874584960938,0.006946410518139601,-0.005445427261292934,-0.002949606394395232
1702338817299009800,75.768009765625,0.004590216092765331,-0.005148721393197775,-0.0016406094655394554
1702338817398272500,75.8672724609375,0.007155850064009428,-0.004188789986073971,-0.002373647876083851
1702338817497536500,75.96653662109375,0.006405358202755451,-0.00769690191373229,-0.0019547687843441963
1702338817596799000,76.06579907226562,0.005096361506730318,-0.006457718089222908,-0.0025307273026555777
1702338817696061400,76.1650615234375,0.005986479111015797,-0.005427973810583353,-0.002722713630646467
1702338817795325400,76.26432543945313,0.007295476272702217,-0.004310963209718466,-0.0017976891249418259
1702338817894588000,76.363587890625,0.0057072266936302185,-0.005550147034227848,-0.003351032268255949
1702338817993852200,76.46285205078125,0.006527531426399946,-0.005497787147760391,-0.00205948855727911
1702338818093114600,76.56211450195312,0.006056292448192835,-0.005881759338080883,-0.00331612559966743
1702338818192378600,76.66137866210937,0.006771877408027649,-0.0047996556386351585,-0.001658062799833715
1702338818291641000,76.76064111328125,0.006667157635092735,-0.0051312679424881935,-0.0022165682166814804
1702338818390905000,76.85990502929687,0.006021386012434959,-0.006544984877109528,-0.002146754879504442
1702338818490167800,76.95916772460937,0.004939281847327948,-0.005305801052600145,-0.003228859044611454
1702338818589431800,77.05843188476562,0.006824237294495106,-0.005916666239500046,-0.0014137167017906904
1702338818688694300,77.1576943359375,0.006213372107595205,-0.00502654816955328,-0.00188495556358248
1702338818787956700,77.25695678710937,0.006073745898902416,-0.005201081279665232,-0.003176499158143997
1702338818887220700,77.356220703125,0.00593411922454834,-0.005166174378246069,-0.0019896754529327154
1702338818986483500,77.4554833984375,0.005323254037648439,-0.006405358202755451,-0.0012391837080940604
1702338819085747500,77.55474755859375,0.004660028964281082,-0.00548033369705081,-0.0033684854861348867
1702338819185010000,77.65401000976563,0.0057072266936302185,-0.006387905217707157,-0.0018325956771150231
1702338819284272400,77.7532724609375,0.00617846567183733,-0.005794493015855551,-0.002740166848525405
1702338819383536400,77.85253637695313,0.004852015525102615,-0.005881759338080883,-0.0010122909443452954
1702338819482800600,77.95180053710938,0.005829399451613426,-0.0055850534699857235,-0.0018325956771150231
1702338819582063000,78.05106298828125,0.006056292448192835,-0.005044001620262861,-0.0021118484437465668
1702338819681325600,78.15032568359375,0.006946410518139601,-0.005515240598469973,-0.0015358896926045418
1702338819780589600,78.24958959960938,0.006108652334660292,-0.0067369709722697735,-0.0021118484437465668
1702338819879852000,78.34885205078125,0.005619960371404886,-0.00593411922454834,-0.0026703537441790104
1702338819979116000,78.44811596679688,0.006265731994062662,-0.006021386012434959,-0.0021816615480929613
1702338820078378800,78.54737866210938,0.005619960371404886,-0.004660028964281082,-0.0022689281031489372
1702338820177642800,78.64664282226562,0.005846852902323008,-0.006405358202755451,-0.0026529005263000727
1702338820276905200,78.7459052734375,0.005201081279665232,-0.005375613924115896,-0.002007128670811653
1702338820376167700,78.84516772460937,0.005532693583518267,-0.004433136433362961,-0.002234021434560418
1702338820475431700,78.944431640625,0.005846852902323008,-0.005410520825535059,-0.0025656339712440968
1702338820574694400,79.0436943359375,0.005148721393197775,-0.0067544239573180676,-0.002460914198309183
1702338820673958400,79.14295849609375,0.006544984877109528,-0.006056292448192835,-0.0016755161341279745
1702338820773220900,79.24222094726562,0.006126105785369873,-0.005811946466565132,-0.001972222002223134
1702338820872484900,79.34148486328125,0.006370451766997576,-0.0050090947188436985,-0.002007128670811653
1702338820971747300,79.44074731445312,0.004660028964281082,-0.006230825558304787,-0.0026179938577115536
1702338821071011600,79.54001147460937,0.005916666239500046,-0.005410520825535059,-0.0023387412074953318
1702338821170274000,79.63927416992188,0.006405358202755451,-0.005166174378246069,-0.0016929693520069122
1702338821269538000,79.7385380859375,0.006510077975690365,-0.004782202187925577,-0.0014660765882581472
1702338821368800500,79.83780053710937,0.006667157635092735,-0.005166174378246069,-0.0024085543118417263
1702338821468064500,79.937064453125,0.005846852902323008,-0.006387905217707157,-0.0022165682166814804
1702338821567327000,80.03632690429687,0.00593411922454834,-0.004764748737215996,-0.0018675023457035422
1702338821666589700,80.13558959960938,0.006126105785369873,-0.00609119888395071,-0.002775073517113924
1702338821765853700,80.23485375976563,0.005201081279665232,-0.004886921960860491,-0.0007504915702156723
1702338821865116200,80.3341162109375,0.005689773242920637,-0.006021386012434959,-0.002373647876083851
1702338821964380200,80.43338012695312,0.006440265104174614,-0.005288347601890564,-0.0019547687843441963
1702338822063642600,80.532642578125,0.006562437862157822,-0.005777040030807257,-0.0026529005263000727
1702338822162907000,80.63190698242188,0.005829399451613426,-0.006579891312867403,-0.0021816615480929613
1702338822262169300,80.73116943359375,0.005881759338080883,-0.005078908056020737,-0.002199114765971899
1702338822361433300,80.83043334960938,0.0067369709722697735,-0.004712388850748539,-0.0023387412074953318
1702338822460695800,80.92969580078125,0.007120943162590265,-0.006405358202755451,-0.0022689281031489372
1702338822559959800,81.02895971679688,0.0057246801443398,-0.005340707488358021,-0.0010821041651070118
1702338822659222300,81.12822216796874,0.007260569836944342,-0.00502654816955328,-0.002687806962057948
1702338822758486500,81.22748657226562,0.005515240598469973,-0.005427973810583353,-0.002460914198309183
1702338822857749000,81.3267490234375,0.0067369709722697735,-0.005654866807162762,-0.0015009831404313445
1702338822957011500,81.42601147460938,0.00617846567183733,-0.005759586580097675,-0.0027052604127675295
1702338823056275500,81.525275390625,0.005777040030807257,-0.004049163777381182,-0.0024085543118417263
1702338823155538000,81.62453784179688,0.005550147034227848,-0.005462880712002516,-0.002251474652439356
1702338823254802200,81.72380224609375,0.005864306353032589,-0.006248278543353081,-0.0021118484437465668
1702338823354064600,81.82306469726562,0.00548033369705081,-0.005986479111015797,-0.0023387412074953318
1702338823453328600,81.92232861328125,0.006963863503187895,-0.005969026125967503,-0.001972222002223134
1702338823552591000,82.02159106445312,0.006911503616720438,-0.005777040030807257,-0.0015358896926045418
1702338823651855000,82.12085522460937,0.005427973810583353,-0.006073745898902416,-0.0016231562476605177
1702338823751117800,82.22011791992188,0.005044001620262861,-0.005113814491778612,-0.0012042771559208632
1702338823850381800,82.3193818359375,0.00724311638623476,-0.004642575979232788,-0.0012740903766825795
1702338823949644300,82.41864428710937,0.004747295752167702,-0.005951572675257921,-0.0015358896926045418
1702338824048906800,82.51790673828125,0.005044001620262861,-0.005951572675257921,-0.0020420351065695286
1702338824148170800,82.61717065429687,0.005078908056020737,-0.005148721393197775,-0.0018151424592360854
1702338824247433200,82.71643310546875,0.007260569836944342,-0.0062831854447722435,-0.0025656339712440968
1702338824346697500,82.81569750976563,0.006003932561725378,-0.006562437862157822,-0.0017104226863011718
1702338824445960000,82.9149599609375,0.005323254037648439,-0.006213372107595205,-0.0017802357906475663
1702338824545224000,83.01422387695312,0.004974188283085823,-0.005061454605311155,-0.0010471974965184927
1702338824644486400,83.113486328125,0.006056292448192835,-0.006352998316287994,-0.002146754879504442
1702338824743750400,83.21275048828124,0.005410520825535059,-0.005427973810583353,-0.0022165682166814804
1702338824843013000,83.31201318359375,0.00617846567183733,-0.00563741335645318,-0.001745329238474369
1702338824942277000,83.41127709960938,0.007103490177541971,-0.004450589418411255,-0.0019896754529327154
1702338825041539600,83.51053955078125,0.005201081279665232,-0.006719517521560192,-0.0026529005263000727
1702338825140803600,83.60980346679688,0.007120943162590265,-0.00548033369705081,-0.0018500490114092827
1702338825240066000,83.70906616210938,0.005777040030807257,-0.007173303049057722,-0.0017802357906475663
1702338825339330300,83.80833032226562,0.005148721393197775,-0.004747295752167702,-0.0020769417751580477
1702338825438592800,83.9075927734375,0.007731808349490166,-0.005323254037648439,-0.0024434609804302454
1702338825537855200,84.00685522460938,0.005044001620262861,-0.005393067374825478,-0.0008028514566831291
1702338825637119200,84.106119140625,0.005305801052600145,-0.006649704650044441,-0.0019198621157556772
1702338825736381700,84.20538159179688,0.006265731994062662,-0.0052534411661326885,-0.0028623400721699
1702338825835646000,84.30464599609375,0.006230825558304787,-0.005654866807162762,-0.0023911010939627886
1702338825934908400,84.40390844726562,0.006527531426399946,-0.00593411922454834,-0.0032463124953210354
1702338826034172400,84.50317236328125,0.005654866807162762,-0.004433136433362961,-0.0023387412074953318
1702338826133435000,84.60243481445312,0.00518362782895565,-0.005672320257872343,-0.0016231562476605177
1702338826232699000,84.70169897460937,0.006265731994062662,-0.004502949304878712,-0.00143117003608495
1702338826331961300,84.80096142578125,0.007016223389655352,-0.005672320257872343,-0.0019547687843441963
1702338826431225600,84.9002255859375,0.005550147034227848,-0.005550147034227848,-0.002199114765971899
1702338826530488000,84.99948803710937,0.007225662935525179,-0.0052534411661326885,-0.0021642083302140236
1702338826629752000,85.098751953125,0.007435102481395006,-0.004764748737215996,-0.001972222002223134
1702338826729014500,85.1980146484375,0.006405358202755451,-0.005969026125967503,-0.002286381321027875
1702338826828277000,85.29727709960937,0.006073745898902416,-0.004886921960860491,-0.0015533430268988013
1702338826927541200,85.39654125976563,0.006963863503187895,-0.00563741335645318,-0.002146754879504442
1702338827026803700,85.4958037109375,0.006318091880530119,-0.006370451766997576,-0.0019198621157556772
1702338827126067700,85.59506762695312,0.00593411922454834,-0.006352998316287994,-0.001658062799833715
1702338827225330200,85.694330078125,0.005899212788790464,-0.0060388389974832535,-0.0025656339712440968
1702338827324594200,85.79359423828124,0.005864306353032589,-0.005515240598469973,-0.0020943949930369854
1702338827423857000,85.89285693359375,0.0051312679424881935,-0.005515240598469973,-0.002234021434560418
1702338827523119400,85.99211938476563,0.006597344763576984,-0.007016223389655352,-0.0023911010939627886
1702338827622383400,86.09138330078125,0.007208209950476885,-0.004258603323251009,-0.0011519172694534063
1702338827721647400,86.1906474609375,0.007033676840364933,-0.005951572675257921,-0.002373647876083851
1702338827820909800,86.28990991210938,0.006021386012434959,-0.006265731994062662,-0.003630284918472171
1702338827920172300,86.38917236328125,0.0061610122211277485,-0.004607669077813625,-0.0022165682166814804
1702338828019436500,86.4884365234375,0.005515240598469973,-0.0046774824149906635,-0.0018675023457035422
1702338828118699000,86.58769897460938,0.006300638429820538,-0.006387905217707157,-0.0021118484437465668
1702338828217963000,86.686962890625,0.0047996556386351585,-0.0057246801443398,-0.0019547687843441963
1702338828317225500,86.7862255859375,0.006108652334660292,-0.005340707488358021,-0.0024085543118417263
1702338828416488000,86.88548803710937,0.0055850534699857235,-0.005096361506730318,-0.0017104226863011718
1702338828515752200,86.98475219726562,0.0066147977486252785,-0.006841690745204687,-0.001658062799833715
1702338828615016200,87.08401611328125,0.0057246801443398,-0.006649704650044441,-0.0025656339712440968
1702338828714278700,87.18327856445312,0.006841690745204687,-0.0047996556386351585,-0.002146754879504442
1702338828813542700,87.28254272460937,0.005288347601890564,-0.00609119888395071,-0.0026529005263000727
1702338828912805000,87.38180517578125,0.005829399451613426,-0.006108652334660292,-0.002548180753365159
1702338829012067800,87.48106787109376,0.005654866807162762,-0.005288347601890564,-0.002687806962057948
1702338829111331800,87.58033178710937,0.007278022821992636,-0.005532693583518267,-0.0016231562476605177
1702338829210594300,87.67959423828125,0.005829399451613426,-0.006911503616720438,-0.0027052604127675295
1702338829309858300,87.7788583984375,0.006108652334660292,-0.006998770404607058,-0.0023038345389068127
1702338829409120800,87.87812084960937,0.005305801052600145,-0.005899212788790464,-0.001972222002223134
1702338829508383200,87.97738330078126,0.006073745898902416,-0.005375613924115896,-0.002146754879504442
1702338829607647500,88.0766474609375,0.005811946466565132,-0.005759586580097675,-0.0017278759041801095
1702338829706910000,88.17590991210938,0.005916666239500046,-0.006143558770418167,-0.002286381321027875
1702338829806174000,88.27517407226563,0.006195918656885624,-0.004904375411570072,-0.0016755161341279745
1702338829905438000,88.37443798828124,0.0057246801443398,-0.005986479111015797,-0.0018500490114092827
1702338830004700400,88.47370043945313,0.00563741335645318,-0.005742133129388094,-0.0020769417751580477
1702338830103963100,88.57296313476563,0.0057072266936302185,-0.006492624990642071,-0.0031241392716765404
1702338830203227100,88.67222705078125,0.006492624990642071,-0.005044001620262861,-0.0012740903766825795
1702338830302489600,88.77148950195313,0.005777040030807257,-0.003909537568688393,-0.0006806784076616168
1702338830401753600,88.87075366210938,0.006265731994062662,-0.0055850534699857235,-0.001518436474725604
1702338830501016000,88.97001611328125,0.006300638429820538,-0.0067544239573180676,-0.0025830871891230345
1702338830600280300,89.0692802734375,0.006859143730252981,-0.0062831854447722435,-0.002199114765971899
1702338830699542800,89.16854272460938,0.006056292448192835,-0.00518362782895565,-0.0023387412074953318
1702338830798805200,89.26780517578125,0.005777040030807257,-0.006405358202755451,-0.0016231562476605177
1702338830898069200,89.3670693359375,0.006894050631672144,-0.005113814491778612,-0.0022165682166814804
1702338830997331700,89.46633178710937,0.00563741335645318,-0.006422811653465033,-0.0018151424592360854
1702338831096595700,89.565595703125,0.006422811653465033,-0.0037873645778745413,-0.001343903481028974
1702338831195858400,89.6648583984375,0.005846852902323008,-0.005532693583518267,-0.0013788101496174932
1702338831295122400,89.76412231445312,0.006230825558304787,-0.006649704650044441,-0.0015707963611930609
1702338831394385000,89.86338500976562,0.00548033369705081,-0.004747295752167702,-0.0017976891249418259
1702338831493649000,89.96264892578125,0.006684611085802317,-0.004921828396618366,-0.0022165682166814804
1702338831592911400,90.06191137695312,0.0057246801443398,-0.005375613924115896,-0.0020943949930369854
1702338831692175600,90.16117553710937,0.006108652334660292,-0.0066147977486252785,-0.0027576202992349863
1702338831791438000,90.26043798828125,0.006771877408027649,-0.005096361506730318,-0.0016755161341279745
1702338831890700500,90.35970043945312,0.006457718089222908,-0.004694935865700245,-0.0017976891249418259
1702338831989964500,90.45896459960937,0.007138396613299847,-0.006597344763576984,-0.0016755161341279745
1702338832089227000,90.55822705078126,0.006702064536511898,-0.0052534411661326885,-0.001518436474725604
1702338832188491300,90.6574912109375,0.006771877408027649,-0.004450589418411255,-0.0021118484437465668
1702338832287753700,90.75675366210938,0.005846852902323008,-0.006527531426399946,-0.002007128670811653
1702338832387017700,90.85601782226563,0.006230825558304787,-0.006300638429820538,-0.0020420351065695286
1702338832486280200,90.9552802734375,0.006579891312867403,-0.005759586580097675,-0.0020943949930369854
1702338832585544200,91.05454418945313,0.006894050631672144,-0.005794493015855551,-0.0020420351065695286
1702338832684806700,91.153806640625,0.006318091880530119,-0.0066147977486252785,-0.0010471974965184927
1702338832784071000,91.25307080078124,0.005654866807162762,-0.00724311638623476,-0.002146754879504442
1702338832883333400,91.35233349609375,0.006527531426399946,-0.005672320257872343,-0.00331612559966743
1702338832982597400,91.45159741210938,0.006300638429820538,-0.004310963209718466,-0.001972222002223134
1702338833081859800,91.55085986328125,0.004747295752167702,-0.005829399451613426,-0.0020943949930369854
1702338833181122300,91.65012231445313,0.005846852902323008,-0.006230825558304787,-0.0020420351065695286
1702338833280386600,91.74938647460938,0.004153883550316095,-0.005619960371404886,-0.0016929693520069122
1702338833379649000,91.84864892578125,0.005916666239500046,-0.005550147034227848,-0.0025656339712440968
1702338833478913000,91.9479130859375,0.006370451766997576,-0.005916666239500046,-0.0021816615480929613
1702338833578175500,92.04717553710938,0.005811946466565132,-0.006126105785369873,-0.0023387412074953318
1702338833677439500,92.146439453125,0.005550147034227848,-0.005410520825535059,-0.00205948855727911
1702338833776702200,92.2457021484375,0.006003932561725378,-0.005689773242920637,-0.002024581888690591
1702338833875966200,92.34496630859375,0.005794493015855551,-0.004747295752167702,-0.0023387412074953318
1702338833975228700,92.44422875976562,0.005375613924115896,-0.006003932561725378,-0.0021118484437465668
1702338834074492700,92.54349267578125,0.004660028964281082,-0.005846852902323008,-0.0023038345389068127
1702338834173755100,92.64275512695312,0.006562437862157822,-0.005829399451613426,-0.00143117003608495
1702338834273017600,92.742017578125,0.006108652334660292,-0.006544984877109528,-0.0013962633674964309
1702338834372281900,92.84128173828125,0.005619960371404886,-0.004817108623683453,-0.0019896754529327154
1702338834471545900,92.9405458984375,0.005759586580097675,-0.005393067374825478,-0.0017976891249418259
1702338834570806800,93.03980688476562,0.005410520825535059,-0.0051312679424881935,-0.0026179938577115536
1702338834670070800,93.13907080078125,0.005305801052600145,-0.006667157635092735,-0.0024260077625513077
1702338834769334800,93.23833471679687,0.005235987715423107,-0.006003932561725378,-0.0023038345389068127
1702338834868597500,93.33759741210937,0.006475171539932489,-0.005061454605311155,-0.00188495556358248
1702338834967861500,93.43686157226563,0.005846852902323008,-0.004974188283085823,-0.0031590459402650595
1702338835067124000,93.5361240234375,0.005742133129388094,-0.006143558770418167,-0.0023911010939627886
1702338835166386400,93.63538647460938,0.005462880712002516,-0.005881759338080883,-0.002007128670811653
1702338835265650400,93.734650390625,0.006894050631672144,-0.005532693583518267,-0.0022689281031489372
1702338835364914700,93.83391479492188,0.00593411922454834,-0.004171337001025677,-0.002914699725806713
1702338835464177200,93.93317724609375,0.005375613924115896,-0.006649704650044441,-0.0010646508308127522
1702338835563439600,94.03243969726563,0.005986479111015797,-0.005986479111015797,-0.0020769417751580477
1702338835662703600,94.13170361328125,0.005689773242920637,-0.004921828396618366,-0.0013788101496174932
1702338835761966000,94.23096606445313,0.006021386012434959,-0.005201081279665232,-0.0023038345389068127
1702338835861228500,94.330228515625,0.004206243436783552,-0.006597344763576984,-0.0015533430268988013
1702338835960492800,94.42949291992187,0.005986479111015797,-0.005113814491778612,-0.0019547687843441963
1702338836059755300,94.52875537109375,0.005864306353032589,-0.003979350905865431,-0.0025656339712440968
1702338836159019300,94.62801928710938,0.006195918656885624,-0.005899212788790464,-0.002373647876083851
1702338836258283300,94.727283203125,0.006126105785369873,-0.005742133129388094,-0.0016929693520069122
1702338836357545700,94.82654565429688,0.006894050631672144,-0.0060388389974832535,-0.003036872949451208
1702338836456810000,94.92581005859375,0.006492624990642071,-0.004520402755588293,-0.001483529806137085
1702338836556072400,95.02507250976562,0.005759586580097675,-0.005497787147760391,-0.002286381321027875
1702338836655335000,95.1243349609375,0.005393067374825478,-0.006597344763576984,-0.0018675023457035422
1702338836754599000,95.22359887695312,0.007487462367862463,-0.005550147034227848,-0.0018325956771150231
1702338836853863000,95.32286279296875,0.005986479111015797,-0.003979350905865431,-0.0034208453726023436
1702338836953125600,95.42212573242188,0.006667157635092735,-0.0055850534699857235,-0.002827433403581381
1702338837052388000,95.52138818359376,0.005899212788790464,-0.006824237294495106,-0.0026703537441790104
1702338837151650600,95.62065063476562,0.005951572675257921,-0.004066617228090763,-0.0021293016616255045
1702338837250914600,95.71991455078125,0.006911503616720438,-0.004869468510150909,-0.0010995573829859495
1702338837350177000,95.81917700195312,0.005881759338080883,-0.005427973810583353,-0.0028623400721699
1702338837449441000,95.91844091796875,0.005689773242920637,-0.006562437862157822,-0.002146754879504442
1702338837548703700,96.01770385742188,0.006806783843785524,-0.004939281847327948,-0.0012217304902151227
1702338837647967700,96.1169677734375,0.006056292448192835,-0.006126105785369873,-0.002600540639832616
1702338837747230200,96.21623022460938,0.006684611085802317,-0.005777040030807257,-0.002722713630646467
1702338837846494200,96.315494140625,0.00563741335645318,-0.0050090947188436985,-0.002286381321027875
1702338837945756700,96.41475659179687,0.0045553091913461685,-0.004607669077813625,-0.001483529806137085
1702338838045021000,96.51402099609375,0.006195918656885624,-0.005881759338080883,-0.001972222002223134
1702338838144283400,96.61328344726563,0.005951572675257921,-0.006195918656885624,-0.0025307273026555777
1702338838243547400,96.71254736328125,0.005340707488358021,-0.005393067374825478,-0.0023038345389068127
1702338838342809900,96.81180981445313,0.005270894151180983,-0.004660028964281082,-0.0014486232539638877
1702338838442072300,96.911072265625,0.006230825558304787,-0.005672320257872343,-0.001972222002223134
1702338838541336600,97.01033666992187,0.006597344763576984,-0.006248278543353081,-0.0015707963611930609
1702338838640599000,97.10959912109375,0.00617846567183733,-0.005445427261292934,-0.0028448866214603186
1702338838739863000,97.20886303710938,0.0057072266936302185,-0.004660028964281082,-0.002007128670811653
1702338838839125500,97.30812548828125,0.005794493015855551,-0.005969026125967503,-0.001658062799833715
1702338838938389500,97.40738940429688,0.005061454605311155,-0.006946410518139601,-0.0012740903766825795
1702338839037652000,97.50665185546875,0.006771877408027649,-0.004747295752167702,-0.0011519172694534063
1702338839136916200,97.60591625976562,0.006667157635092735,-0.005235987715423107,-0.0023387412074953318
1702338839236178700,97.7051787109375,0.004921828396618366,-0.005899212788790464,-0.002199114765971899
1702338839335442700,97.80444262695312,0.007155850064009428,-0.005497787147760391,-0.002478367416188121
1702338839434705200,97.903705078125,0.005462880712002516,-0.004136430099606514,-0.0023561944253742695
1702338839533967600,98.00296752929688,0.0066147977486252785,-0.0051312679424881935,-0.0030194194987416267
1702338839633232000,98.10223193359376,0.0052534411661326885,-0.005393067374825478,-0.0019896754529327154
1702338839732494300,98.20149438476562,0.0057246801443398,-0.005270894151180983,-0.0023387412074953318
1702338839831758300,98.30075830078125,0.006963863503187895,-0.005986479111015797,-0.002234021434560418
1702338839931020800,98.40002075195312,0.006126105785369873,-0.004136430099606514,-0.0021118484437465668
1702338840030284800,98.49928491210937,0.005846852902323008,-0.0060388389974832535,-0.003036872949451208
1702338840129547500,98.59854760742188,0.004625122528523207,-0.005864306353032589,-0.0018675023457035422
1702338840228811500,98.6978115234375,0.005654866807162762,-0.005567600484937429,-0.0019198621157556772
1702338840328074000,98.79707397460938,0.0060388389974832535,-0.004328416660428047,-0.002321287989616394
1702338840427338000,98.896337890625,0.006230825558304787,-0.006998770404607058,-0.00188495556358248
1702338840526600400,98.99560034179687,0.005358160939067602,-0.004502949304878712,-0.0016057029133662581
1702338840625864700,99.09486474609375,0.0068765971809625626,-0.004590216092765331,-0.0020769417751580477
1702338840725127200,99.19412719726563,0.006475171539932489,-0.004433136433362961,-0.0006457717972807586
1702338840824389600,99.2933896484375,0.005916666239500046,-0.00617846567183733,-0.00296705961227417
1702338840923653600,99.39265356445313,0.006265731994062662,-0.005811946466565132,-0.0028972465079277754
1702338841022916000,99.491916015625,0.00563741335645318,-0.005323254037648439,-0.003036872949451208
1702338841122180000,99.59118017578125,0.0061610122211277485,-0.004782202187925577,-0.0016406094655394554
1702338841221442800,99.69044287109375,0.006248278543353081,-0.0044156829826533794,-0.002827433403581381
1702338841320706800,99.78970678710938,0.005916666239500046,-0.005393067374825478,-0.0021816615480929613
1702338841419969300,99.88896923828125,0.006352998316287994,-0.004886921960860491,-0.0025830871891230345
1702338841519233300,99.9882333984375,0.005742133129388094,-0.005323254037648439,-0.0019373154500499368
1702338841618495700,100.08749584960937,0.0039618974551558495,-0.005846852902323008,-0.002740166848525405
1702338841717760000,100.18676000976562,0.005899212788790464,-0.006824237294495106,-0.0031415927223861217
1702338841817022500,100.2860224609375,0.0060388389974832535,-0.004590216092765331,-0.0021293016616255045
1702338841916286500,100.38528637695312,0.006021386012434959,-0.004974188283085823,-0.0020769417751580477
1702338842015549000,100.484548828125,0.006475171539932489,-0.005235987715423107,-0.0019547687843441963
1702338842114811400,100.58381127929688,0.006841690745204687,-0.006195918656885624,-0.0026529005263000727
1702338842214075600,100.68307568359376,0.005794493015855551,-0.0046774824149906635,-0.0022165682166814804
1702338842313338000,100.78233813476562,0.005550147034227848,-0.005323254037648439,-0.0017802357906475663
1702338842412602000,100.88160205078125,0.005881759338080883,-0.005270894151180983,-0.0027052604127675295
1702338842511866000,100.9808662109375,0.006841690745204687,-0.005550147034227848,-0.0019024088978767395
1702338842611128600,101.08012866210937,0.007016223389655352,-0.004956734832376242,-0.0028972465079277754
1702338842710391000,101.17939111328126,0.006230825558304787,-0.006248278543353081,-0.0016231562476605177
1702338842809655300,101.2786552734375,0.005794493015855551,-0.006003932561725378,-0.001745329238474369
1702338842908917800,101.37791772460938,0.005794493015855551,-0.005201081279665232,-0.0024260077625513077
1702338843008181800,101.477181640625,0.0057246801443398,-0.0047996556386351585,-0.0019373154500499368
1702338843107444200,101.5764443359375,0.006248278543353081,-0.005742133129388094,-0.0023387412074953318
1702338843206708200,101.67570825195313,0.005864306353032589,-0.006230825558304787,-0.0010646508308127522
1702338843305971000,101.77497094726563,0.005811946466565132,-0.005393067374825478,-0.003036872949451208
1702338843405233400,101.8742333984375,0.0061610122211277485,-0.004869468510150909,-0.0019198621157556772
1702338843504497400,101.97349731445313,0.006946410518139601,-0.005288347601890564,-0.001972222002223134
1702338843603759900,102.072759765625,0.005811946466565132,-0.005969026125967503,-0.0015882495790719986
1702338843703022300,102.17202221679688,0.005794493015855551,-0.005201081279665232,-0.0012391837080940604
1702338843802286300,102.27128637695313,0.006597344763576984,-0.00518362782895565,-0.0021118484437465668
1702338843901550600,102.37055053710938,0.005986479111015797,-0.005375613924115896,-0.0026703537441790104
1702338844000813000,102.46981298828125,0.005462880712002516,-0.005393067374825478,-0.0022689281031489372
1702338844100077000,102.5690771484375,0.006562437862157822,-0.00472984230145812,-0.0014660765882581472
1702338844199339500,102.66833959960937,0.006649704650044441,-0.004939281847327948,-0.0017104226863011718
1702338844298603800,102.76760375976562,0.005288347601890564,-0.00678933085873723,-0.003054326167330146
1702338844397866200,102.8668662109375,0.006457718089222908,-0.005113814491778612,-0.0023387412074953318
1702338844497128700,102.96612866210937,0.005846852902323008,-0.004171337001025677,-0.002460914198309183
1702338844596392700,103.06539282226562,0.005550147034227848,-0.005951572675257921,-0.002234021434560418
1702338844695655200,103.1646552734375,0.006126105785369873,-0.006126105785369873,-0.0023561944253742695
1702338844794919200,103.26391918945312,0.005829399451613426,-0.005166174378246069,-0.0023911010939627886
1702338844894182000,103.36318188476562,0.006719517521560192,-0.004904375411570072,-0.0028972465079277754
1702338844993446000,103.46244580078125,0.005323254037648439,-0.005846852902323008,-0.002722713630646467
1702338845092710000,103.5617099609375,0.005986479111015797,-0.006213372107595205,-0.0019024088978767395
1702338845191970800,103.660970703125,0.006021386012434959,-0.0060388389974832535,-0.0022165682166814804
1702338845291234800,103.76023486328126,0.005759586580097675,-0.005288347601890564,-0.0021293016616255045
1702338845390497300,103.85949731445312,0.005602506920695305,-0.0057246801443398,-0.0019198621157556772
1702338845489761500,103.95876147460937,0.006894050631672144,-0.006562437862157822,-0.0019896754529327154
1702338845589024000,104.05802392578126,0.0067544239573180676,-0.0050090947188436985,-0.0021816615480929613
1702338845688288000,104.1572880859375,0.006143558770418167,-0.0042236968874931335,-0.0018151424592360854
1702338845787550500,104.25655053710938,0.005567600484937429,-0.0038222710136324167,-0.0019198621157556772
1702338845886814500,104.355814453125,0.005986479111015797,-0.005410520825535059,-0.002914699725806713
1702338845986077200,104.4550771484375,0.006475171539932489,-0.004468042869120836,-0.0024958208668977022
1702338846085341200,104.55434106445313,0.00609119888395071,-0.0052534411661326885,-0.00296705961227417
1702338846184603600,104.65360375976563,0.006649704650044441,-0.005061454605311155,-0.0020420351065695286
1702338846283866000,104.7528662109375,0.006911503616720438,-0.0050090947188436985,-0.0019373154500499368
1702338846383130000,104.85213012695313,0.006003932561725378,-0.004590216092765331,-0.002775073517113924
1702338846482394400,104.95139428710938,0.006265731994062662,-0.004136430099606514,-0.00188495556358248
1702338846581656800,105.05065673828125,0.006073745898902416,-0.005270894151180983,-0.0016057029133662581
1702338846680920800,105.1499208984375,0.005794493015855551,-0.005759586580097675,-0.0024260077625513077
1702338846780183300,105.24918334960938,0.00678933085873723,-0.004939281847327948,-0.002914699725806713
1702338846879445800,105.34844580078125,0.005759586580097675,-0.005445427261292934,-0.0028448866214603186
1702338846978710000,105.4477099609375,0.005829399451613426,-0.004817108623683453,-0.0024085543118417263
1702338847077972500,105.54697241210937,0.0052534411661326885,-0.004974188283085823,-0.0023911010939627886
1702338847177236500,105.64623657226562,0.005462880712002516,-0.005113814491778612,-0.0024085543118417263
1702338847276499000,105.7454990234375,0.005951572675257921,-0.004345869645476341,-0.002600540639832616
1702338847375763000,105.84476293945312,0.005794493015855551,-0.005410520825535059,-0.003228859044611454
1702338847475025400,105.944025390625,0.005113814491778612,-0.004869468510150909,-0.0019373154500499368
1702338847574288100,106.0432880859375,0.006195918656885624,-0.005497787147760391,-0.0015533430268988013
1702338847673552100,106.14255224609374,0.005235987715423107,-0.004956734832376242,-0.0026529005263000727
1702338847772814600,106.24181469726562,0.00724311638623476,-0.004450589418411255,-0.0025307273026555777
1702338847872078600,106.34107861328125,0.005148721393197775,-0.005235987715423107,-0.00143117003608495
1702338847971341000,106.44034106445312,0.006248278543353081,-0.006405358202755451,-0.0012915435945615172
1702338848070605300,106.53960522460937,0.0068765971809625626,-0.0052534411661326885,-0.0024260077625513077
1702338848169867800,106.63886767578126,0.0057072266936302185,-0.00609119888395071,-0.0021293016616255045
1702338848269131800,106.7381318359375,0.006300638429820538,-0.005916666239500046,-0.00125663704238832
1702338848368394200,106.83739428710938,0.005846852902323008,-0.00563741335645318,-0.0014660765882581472
1702338848467658200,106.936658203125,0.005078908056020737,-0.005864306353032589,-0.0027052604127675295
1702338848566921000,107.0359208984375,0.004171337001025677,-0.004869468510150909,-0.0016929693520069122
1702338848666183400,107.13518334960938,0.007138396613299847,-0.005393067374825478,-0.0012740903766825795
1702338848765447400,107.23444750976563,0.006387905217707157,-0.006352998316287994,-0.002740166848525405
1702338848864710000,107.3337099609375,0.005846852902323008,-0.005602506920695305,-0.002775073517113924
1702338848963974000,107.43297387695313,0.005567600484937429,-0.004520402755588293,-0.0011693706037476659
1702338849063236400,107.532236328125,0.005916666239500046,-0.005532693583518267,-0.001972222002223134
1702338849162500600,107.63150048828125,0.005445427261292934,-0.006544984877109528,-0.002478367416188121
1702338849261763000,107.73076318359375,0.006318091880530119,-0.005358160939067602,-0.00251327408477664
1702338849361027000,107.83002709960938,0.00593411922454834,-0.0049916417337954044,-0.001483529806137085
1702338849460289500,107.92928955078125,0.004852015525102615,-0.0070685832761228085,-0.0026529005263000727
1702338849559553500,108.02855346679688,0.006108652334660292,-0.0067369709722697735,-0.001972222002223134
1702338849658816300,108.12781616210937,0.00593411922454834,-0.006440265104174614,-0.0026703537441790104
1702338849758080300,108.22708032226562,0.005445427261292934,-0.005061454605311155,-0.001518436474725604
1702338849857342700,108.3263427734375,0.0066147977486252785,-0.004921828396618366,-0.0019373154500499368
1702338849956605200,108.42560522460937,0.00563741335645318,-0.005689773242920637,-0.003001966280862689
1702338850055869200,108.524869140625,0.005235987715423107,-0.006981316953897476,-0.0024434609804302454
1702338850155131600,108.62413159179688,0.006719517521560192,-0.005445427261292934,-0.003176499158143997
1702338850254396000,108.72339599609376,0.006562437862157822,-0.0049916417337954044,-0.0019373154500499368
1702338850353658400,108.82265844726562,0.005916666239500046,-0.005689773242920637,-0.0024260077625513077
1702338850452922400,108.92192236328125,0.005742133129388094,-0.007801621686667204,-0.00047123889089562
1702338850552184800,109.02118481445312,0.006841690745204687,-0.005864306353032589,-0.002199114765971899
1702338850651449000,109.12044897460937,0.006073745898902416,-0.0052534411661326885,-0.0033684854861348867
1702338850750711600,109.21971166992188,0.006422811653465033,-0.006370451766997576,-0.0020943949930369854
1702338850849975600,109.3189755859375,0.005375613924115896,-0.005113814491778612,-0.002460914198309183
1702338850949238000,109.41823803710938,0.00472984230145812,-0.005166174378246069,-0.00143117003608495
1702338851048502000,109.517501953125,0.0067544239573180676,-0.006230825558304787,-0.003089232835918665
1702338851147764500,109.61676440429687,0.005393067374825478,-0.005078908056020737,-0.0020769417751580477
1702338851247027200,109.71602709960938,0.005811946466565132,-0.006265731994062662,-0.0017627825727686286
1702338851346289700,109.81528955078124,0.006230825558304787,-0.005462880712002516,-0.0026703537441790104
1702338851445555200,109.91455517578125,0.007016223389655352,-0.005829399451613426,-0.0006457717972807586
1702338851544817700,110.01381762695313,0.006213372107595205,-0.006126105785369873,-0.0015707963611930609
1702338851644080000,110.113080078125,0.0052534411661326885,-0.0055850534699857235,-0.001483529806137085
1702338851743344400,110.21234448242187,0.005899212788790464,-0.0052534411661326885,-0.002234021434560418
1702338851842606800,110.31160693359375,0.006213372107595205,-0.005445427261292934,-0.002548180753365159
1702338851941870800,110.41087084960938,0.006073745898902416,-0.005497787147760391,-0.0024085543118417263
1702338852041133300,110.51013330078125,0.006003932561725378,-0.006946410518139601,-0.0026529005263000727
1702338852140397300,110.60939721679688,0.006126105785369873,-0.005515240598469973,-0.002722713630646467
1702338852239659800,110.70865966796875,0.0061610122211277485,-0.005358160939067602,-0.002687806962057948
1702338852338924000,110.80792407226562,0.005811946466565132,-0.004188789986073971,-0.003228859044611454
1702338852438186500,110.9071865234375,0.00617846567183733,-0.005602506920695305,-0.002024581888690591
1702338852537449000,111.00644897460937,0.005986479111015797,-0.00548033369705081,-0.0006981316837482154
1702338852636711400,111.10571142578125,0.0055850534699857235,-0.00518362782895565,-0.0025830871891230345
1702338852735975400,111.20497534179688,0.006213372107595205,-0.0041015236638486385,-0.002914699725806713
1702338852835238100,111.30423803710937,0.006318091880530119,-0.00563741335645318,-0.0028797932900488377
1702338852934502100,111.40350219726562,0.006527531426399946,-0.004328416660428047,-0.0014486232539638877
1702338853033764600,111.5027646484375,0.006213372107595205,-0.006265731994062662,-0.0014137167017906904
1702338853133028600,111.60202856445312,0.00563741335645318,-0.005323254037648439,-0.0026529005263000727
1702338853232291000,111.701291015625,0.006073745898902416,-0.0045378562062978745,-0.0024958208668977022
1702338853331555300,111.80055541992188,0.0063355453312397,-0.006352998316287994,-0.0014486232539638877
1702338853430817800,111.89981787109375,0.006300638429820538,-0.0068765971809625626,-0.0028623400721699
1702338853530081800,111.99908178710938,0.005619960371404886,-0.004136430099606514,-0.002460914198309183
1702338853629344300,112.09834423828126,0.005759586580097675,-0.005811946466565132,-0.0016231562476605177
1702338853728608300,112.19760815429687,0.005567600484937429,-0.006387905217707157,-0.0009948377264663577
1702338853827872500,112.29687255859375,0.005951572675257921,-0.0057072266936302185,-0.003351032268255949
1702338853927133400,112.39613354492188,0.0062831854447722435,-0.0061610122211277485,-0.0023387412074953318
1702338854026397400,112.4953974609375,0.00593411922454834,-0.005201081279665232,-0.002199114765971899
1702338854125660000,112.59465991210938,0.0066147977486252785,-0.004066617228090763,-0.003281218931078911
1702338854224924000,112.693923828125,0.006457718089222908,-0.004939281847327948,-0.001658062799833715
1702338854324186400,112.79318627929688,0.00617846567183733,-0.005864306353032589,-0.0021816615480929613
1702338854423450600,112.89245068359375,0.006265731994062662,-0.004817108623683453,-0.003001966280862689
1702338854522713000,112.99171313476562,0.0067369709722697735,-0.006405358202755451,-0.0014137167017906904
1702338854621977000,113.09097705078125,0.005742133129388094,-0.005410520825535059,-0.001343903481028974
1702338854721241000,113.19024096679688,0.006963863503187895,-0.006108652334660292,-0.0025656339712440968
1702338854820503600,113.28950366210937,0.006928957067430019,-0.004712388850748539,-0.002146754879504442
1702338854919766300,113.38876635742187,0.0052534411661326885,-0.004939281847327948,-0.0015358896926045418
1702338855019028700,113.48802880859375,0.005427973810583353,-0.004433136433362961,-0.00251327408477664
1702338855118292700,113.58729272460937,0.006073745898902416,-0.005358160939067602,-0.002286381321027875
1702338855217555200,113.68655517578125,0.00663225119933486,-0.006806783843785524,-0.0024260077625513077
1702338855316819200,113.78581909179688,0.006562437862157822,-0.0036128314677625895,-0.0026354470755904913
1702338855416081700,113.88508154296875,0.006422811653465033,-0.00502654816955328,-0.001518436474725604
1702338855515346000,113.98434594726562,0.005497787147760391,-0.006911503616720438,-0.003036872949451208
1702338855614608400,114.0836083984375,0.005829399451613426,-0.006998770404607058,-0.0018151424592360854
1702338855713872400,114.18287231445312,0.006213372107595205,-0.0057072266936302185,-0.0021816615480929613
1702338855813134800,114.282134765625,0.005078908056020737,-0.005340707488358021,-0.0021816615480929613
1702338855912398800,114.38139892578126,0.006422811653465033,-0.006562437862157822,-0.0020769417751580477
1702338856011661600,114.48066162109374,0.005602506920695305,-0.006841690745204687,-0.002775073517113924
1702338856110925600,114.57992553710938,0.006300638429820538,-0.0057246801443398,-0.0019024088978767395
1702338856210188000,114.67918798828126,0.006318091880530119,-0.005358160939067602,-0.0014486232539638877
1702338856309452000,114.7784521484375,0.006143558770418167,-0.004607669077813625,-0.0024434609804302454
1702338856408714500,114.87771459960938,0.006230825558304787,-0.006265731994062662,-0.002146754879504442
1702338856507977000,114.97697705078124,0.005270894151180983,-0.005794493015855551,-0.00205948855727911
1702338856607241200,115.0762412109375,0.005689773242920637,-0.005567600484937429,-0.002548180753365159
1702338856706505200,115.17550512695313,0.007958701811730862,-0.006841690745204687,-0.002251474652439356
1702338856805769200,115.27476928710938,0.006230825558304787,-0.005305801052600145,-0.0019024088978767395
1702338856905031700,115.37403173828125,0.0063355453312397,-0.0044156829826533794,-0.0015707963611930609
1702338857004294400,115.47329443359375,0.005881759338080883,-0.005096361506730318,-0.001972222002223134
1702338857103556900,115.57255688476563,0.005969026125967503,-0.0057246801443398,-0.0015358896926045418
