time,seconds_elapsed,z,y,x
1702338741659591700,0.128591796875,9.710546493530273,3.104274034500122,0.20607373118400574
1702338741758855700,0.227855712890625,9.09144401550293,3.177574872970581,0.5151077508926392
1702338741858118400,0.327118408203125,9.143532752990723,3.1695399284362793,0.2522435188293457
1702338741957382400,0.42638232421875,9.453391075134277,3.129767656326294,0.3040827512741089
1702338742056644900,0.525644775390625,9.561885833740234,3.1312520503997803,0.3022536039352417
1702338742155907300,0.6249072265625,8.992985725402832,3.166264533996582,0.38788941502571106
1702338742255184000,0.724183837890625,9.284886360168457,3.1790976524353027,0.43256521224975586
1702338742354433800,0.823433837890625,9.11657428741455,3.1549737453460693,0.4272213578224182
1702338742453698000,0.922697998046875,9.090075492858887,3.2212259769439697,0.2343636155128479
1702338742552960500,1.02196044921875,9.4844388961792,3.11428165435791,0.07248684763908386
1702338742652223000,1.121222900390625,8.887564659118652,3.064453601837158,-0.027169400826096535
1702338742751487000,1.220487060546875,10.434744834899902,3.056332588195801,-0.05848555639386177
1702338742850749400,1.31974951171875,10.109813690185547,2.627751111984253,-1.0560057163238525
1702338742950013700,1.419013671875,10.963126182556152,2.9185798168182373,-0.7630129456520081
1702338743049277700,1.518277587890625,8.03273868560791,2.733891010284424,-1.3738216161727905
1702338743148540200,1.6175400390625,10.855071067810059,3.6598916053771973,0.13981179893016815
1702338743247804200,1.71680419921875,7.216104984283447,2.65697979927063,1.3682862520217896
1702338743347066600,1.816066650390625,7.964915752410889,4.09592342376709,0.635181725025177
1702338743446329000,1.9153291015625,11.261626243591309,2.427327871322632,0.8231360912322998
1702338743545593300,2.01459326171875,8.577016830444336,3.242093801498413,2.0430777072906494
1702338743644855800,2.113855712890625,8.447796821594238,3.4114980697631836,1.9317665100097656
1702338743744119800,2.213119873046875,9.508638381958008,3.2827281951904297,3.2664573192596436
1702338743843382300,2.31238232421875,8.205484390258789,3.55476713180542,3.444183588027954
1702338743942646300,2.411646240234375,8.452585220336914,3.644587993621826,3.624217987060547
1702338744041909000,2.510908935546875,8.04526424407959,2.9271318912506104,4.118381500244141
1702338744141171500,2.61017138671875,9.421174049377441,3.19258189201355,2.812143087387085
1702338744240435500,2.709435546875,8.295612335205078,2.036871910095215,3.791879177093506
1702338744339698000,2.808697998046875,11.97248363494873,3.9814043045043945,2.0732157230377197
1702338744438960400,2.90796044921875,8.256107330322266,2.8691537380218506,2.386913776397705
1702338744538224600,3.007224609375,8.605978012084961,2.7033793926239014,2.6108195781707764
1702338744637488600,3.106488525390625,8.44919490814209,2.2301127910614014,1.9753695726394653
1702338744736751000,3.205751220703125,7.582571029663086,-0.050412312150001526,3.3078579902648926
1702338744836015000,3.30501513671875,13.472795486450195,-1.4539986848831177,-0.7932085990905762
1702338744935277600,3.404277587890625,4.910201072692871,1.1109000444412231,-0.4432433545589447
1702338745034541800,3.503541748046875,13.12609577178955,0.7947217226028442,0.4992963969707489
1702338745133804300,3.60280419921875,12.772989273071289,2.9838457107543945,0.6976512670516968
1702338745233066800,3.702066650390625,12.863241195678711,1.6378254890441895,1.9535057544708252
1702338745332330800,3.801330810546875,12.257421493530273,0.832722544670105,-1.0731099843978882
1702338745431593200,3.90059326171875,12.779472351074219,1.5636721849441528,-1.9830214977264404
1702338745530857200,3.999857177734375,10.662672996520996,1.7359399795532227,-2.7842745780944824
1702338745630120000,4.099119873046875,12.548892974853516,1.5066615343093872,-3.625932455062866
1702338745729384000,4.198384033203125,9.696870803833008,1.9477596282958984,-6.391081809997559
1702338745828646400,4.297646484375,6.629429817199707,1.2104700803756714,-3.813819646835327
1702338745927910400,4.396910400390625,7.911792755126953,0.9701879620552063,-0.35012805461883545
1702338746027172900,4.4961728515625,8.040993690490723,1.5442121028900146,2.8778975009918213
1702338746126437000,4.59543701171875,13.774694442749023,0.03489788621664047,6.216917991638184
1702338746225699600,4.694699462890625,8.054813385009766,-0.6502172946929932,1.6247915029525757
1702338746324963600,4.793963623046875,8.454204559326172,-0.7849533557891846,4.178581237792969
1702338746424226000,4.89322607421875,8.15287971496582,-0.9527677893638611,-0.9258760809898376
1702338746523488500,4.992488525390625,6.564891815185547,0.13358688354492188,-0.560501754283905
1702338746622752800,5.091752685546875,9.967684745788574,-0.3914615511894226,0.912497341632843
1702338746722015200,5.19101513671875,10.885113716125488,0.38367560505867004,-1.8953937292099
1702338746821279200,5.290279296875,9.465380668640137,0.2775837481021881,1.48164701461792
1702338746920541700,5.389541748046875,10.989290237426758,-0.3546770215034485,0.13894988596439362
1702338747019804200,5.48880419921875,8.617574691772461,0.5180286169052124,0.47871583700180054
1702338747119068200,5.588068115234375,10.458791732788086,1.6300491094589233,0.7497777938842773
1702338747218331000,5.687330810546875,10.046242713928223,-0.5216487050056458,0.13134589791297913
1702338747317593300,5.78659326171875,9.034299850463867,-0.04588248208165169,0.8839967250823975
1702338747416857300,5.885857421875,11.211069107055664,-0.25206154584884644,-0.0071921818889677525
1702338747516121300,5.985121337890625,9.231045722961426,0.5174540281295776,0.5014511942863464
1702338747615383800,6.0843837890625,9.791346549987793,0.18484194576740265,0.23605871200561523
1702338747714646300,6.183646240234375,10.381316184997559,2.763521671295166,-3.1706318855285645
1702338747813910500,6.28291064453125,9.849381446838379,0.6078112125396729,-0.36123713850975037
1702338747913174500,6.382174560546875,9.741039276123047,-0.031239543110132217,0.17187495529651642
1702338748012437000,6.48143701171875,9.680495262145996,-0.39178717136383057,0.13620133697986603
1702338748111701000,6.580700927734375,10.438116073608398,0.12786951661109924,-0.11846510320901871
1702338748210963700,6.679963623046875,9.660077095031738,-0.024746470153331757,-0.4965670108795166
1702338748310227700,6.779227783203125,10.060397148132324,0.12271720170974731,0.002308010356500745
1702338748409490200,6.878490234375,9.35288143157959,2.2646563053131104,-0.7259028553962708
1702338748508752600,6.977752685546875,9.519977569580078,3.417694091796875,-2.574571371078491
1702338748608015000,7.07701513671875,9.964218139648438,0.21509507298469543,-1.473343849182129
1702338748707279000,7.176279052734375,9.747771263122559,-1.1516876220703125,0.8855769038200378
1702338748806541800,7.275541748046875,10.057016372680664,-0.539825439453125,0.5445372462272644
1702338748905805800,7.374805908203125,11.976428985595703,0.8927403688430786,-0.0164721067994833
1702338749005068300,7.474068359375,10.859735488891602,0.767159640789032,0.920321524143219
1702338749104332300,7.573332275390625,8.824050903320312,0.03063620626926422,0.27709534764289856
1702338749203594800,7.6725947265625,10.348390579223633,-0.6072365641593933,-1.4684308767318726
1702338749302859000,7.77185888671875,7.822862148284912,0.6691889762878418,-3.366802930831909
1702338749402121500,7.87112158203125,10.288305282592773,1.3843082189559937,-3.721834421157837
1702338749501384000,7.970384033203125,8.625561714172363,1.1584967374801636,-0.9617125391960144
1702338749600649500,8.0696494140625,8.185880661010742,2.5693423748016357,-4.269752502441406
1702338749699910400,8.168910400390626,9.400134086608887,0.5426985025405884,-2.8997037410736084
1702338749799174400,8.26817431640625,9.751688003540039,0.3515166938304901,-2.17724871635437
1702338749898438700,8.367438720703126,9.397174835205078,0.32182857394218445,-1.1263952255249023
1702338749997701000,8.466701171875,9.232462882995605,-1.3533942699432373,-1.408183217048645
1702338750096963600,8.565963623046875,9.237682342529297,-1.4689384698867798,-1.1489869356155396
1702338750196227600,8.6652275390625,9.08190631866455,0.5413864850997925,-0.9238170981407166
1702338750295490000,8.764489990234376,7.6354827880859375,-0.9281841516494751,0.6734697818756104
1702338750394754300,8.86375439453125,9.833762168884277,0.20064367353916168,-0.04542279615998268
1702338750494016800,8.963016845703125,9.665727615356445,0.23227587342262268,0.023855825886130333
1702338750593280800,9.06228076171875,10.026293754577637,0.057499147951602936,-0.17577271163463593
1702338750692544800,9.161544677734375,9.817951202392578,0.13830824196338654,0.020532673224806786
1702338750791805700,9.2608056640625,9.710871696472168,0.1398405283689499,0.03799119219183922
1702338750891070000,9.360070068359375,9.682726860046387,0.15265429019927979,0.04842991381883621
1702338750990334000,9.459333984375,9.722029685974121,0.1448013186454773,0.04198472201824188
1702338751089596400,9.558596435546875,9.721742630004883,0.14583562314510345,0.03995443880558014
1702338751188859000,9.65785888671875,9.72472095489502,0.13202586770057678,0.032953791320323944
1702338751288123000,9.757122802734376,9.705336570739746,0.13745589554309845,0.050057969987392426
1702338751387387100,9.85638720703125,9.727842330932617,0.15127523243427277,0.028471847996115685
1702338751486649600,9.955649658203125,9.712549209594727,0.14268484711647034,0.041716571897268295
1702338751585912000,10.054912109375,9.731242179870605,0.14392025768756866,0.023635558784008026
1702338751685176000,10.154176025390624,9.71712589263916,0.13775278627872467,0.036506786942481995
1702338751784438500,10.2534384765625,9.729116439819336,0.15381309390068054,0.037809234112501144
1702338751883702500,10.35270263671875,9.728379249572754,0.13713029026985168,0.02153823897242546
1702338751982965200,10.45196533203125,9.713075637817383,0.14593137800693512,0.02815581113100052
1702338752082227700,10.551227783203124,9.751679420471191,0.12661495804786682,0.025110388174653053
1702338752181491700,10.65049169921875,9.718084335327148,0.1504516303539276,0.03588429465889931
1702338752280754200,10.749754150390626,9.723570823669434,0.13550224900245667,0.03473507612943649
1702338752380018200,10.84901806640625,9.74095344543457,0.14506947994232178,0.011348516680300236
1702338752479281000,10.948281005859375,9.737448692321777,0.13596193492412567,0.03988740220665932
1702338752578545000,11.047544921875,9.747513771057129,0.14154520630836487,0.036056678742170334
1702338752677807400,11.146807373046874,9.783158302307129,0.13637372851371765,0.03687070310115814
1702338752777071400,11.2460712890625,9.783378601074219,0.1482010781764984,0.03538630157709122
1702338752876333800,11.345333740234375,9.803375244140625,0.14388194680213928,0.03923618048429489
1702338752975598000,11.44459814453125,9.810079574584961,0.14723382890224457,0.03796246275305748
1702338753074860500,11.543860595703125,9.789440155029297,0.1404055655002594,0.01668279804289341
1702338753174124500,11.64312451171875,9.775764465332031,0.1662054806947708,0.03765600547194481
1702338753273387000,11.742386962890626,9.84583854675293,0.14154520630836487,0.018167201429605484
1702338753372649500,11.8416494140625,9.836586952209473,0.14898638427257538,0.025790341198444366
1702338753471913500,11.94091357421875,9.813448905944824,0.13594278693199158,0.013608642853796482
1702338753571177700,12.040177734375,9.815383911132812,0.14527058601379395,0.021930886432528496
1702338753670440200,12.139440185546874,9.817204475402832,0.14333607256412506,0.02023579180240631
1702338753769704200,12.2387041015625,9.817567825317383,0.14229218661785126,0.012124236673116684
1702338753868966700,12.337966552734375,9.801324844360352,0.15547946095466614,0.031957805156707764
1702338753968229000,12.43722900390625,9.80703353881836,0.1419857293367386,0.030109480023384094
1702338754067493400,12.536493408203125,9.82713508605957,0.14664006233215332,0.026546908542513847
1702338754166755800,12.635755859375,9.816226959228516,0.13548308610916138,0.030061595141887665
1702338754266019800,12.735019775390626,9.79971694946289,0.16201083362102509,0.022764069959521294
1702338754365282300,12.8342822265625,9.82899284362793,0.14121001958847046,0.030626628547906876
1702338754464544800,12.933544677734375,9.72197151184082,0.1588696390390396,0.039513904601335526
1702338754563809000,13.03280908203125,9.76069164276123,0.1410088986158371,0.03916914016008377
1702338754663071500,13.132071533203124,9.782305717468262,0.14070244133472443,0.023396139964461327
1702338754762334000,13.231333984375,9.759992599487305,0.15156254172325134,0.03829764947295189
1702338754861599500,13.330599609375,9.735896110534668,0.14427459239959717,0.027313053607940674
1702338754960860400,13.4298603515625,9.766236305236816,0.14732958376407623,0.0368419773876667
1702338755060124400,13.52912451171875,9.752215385437012,0.1332995742559433,0.025512613356113434
1702338755159388700,13.628388671875,9.719884872436523,0.13396036624908447,0.03609498590230942
1702338755258651100,13.727651123046876,9.731884002685547,0.15338213741779327,0.017362751066684723
1702338755357915100,13.8269150390625,9.735906600952148,0.14408305287361145,0.0370909720659256
1702338755457177600,13.926177490234375,9.664952278137207,0.15675316751003265,0.036573827266693115
1702338755556441600,14.025441650390626,9.761094093322754,0.12774503231048584,0.017219098284840584
1702338755655704300,14.124704345703124,9.694486618041992,0.12990938127040863,0.03941813483834267
1702338755754966800,14.223966796875,9.693031311035156,0.14870864152908325,0.030205247923731804
1702338755854230800,14.323230712890625,9.707138061523438,0.15039418637752533,0.02942952699959278
1702338755953494800,14.422494873046874,9.711418151855469,0.13830824196338654,0.035041533410549164
1702338756052755700,14.521755615234374,9.710297584533691,0.14226345717906952,0.030080748721957207
1702338756152021500,14.621021484375,9.705968856811523,0.13894988596439362,0.03824976831674576
1702338756251284000,14.720283935546876,9.720046997070312,0.15126566588878632,0.03488830476999283
1702338756350546400,14.81954638671875,9.752809524536133,0.1342189460992813,0.01573469303548336
1702338756449809000,14.918808837890625,9.651084899902344,0.13704410195350647,0.042243294417858124
1702338756549073000,15.018072998046875,9.709598541259766,0.1490534245967865,0.0225150715559721
1702338756648335400,15.11733544921875,9.72197151184082,0.15104539692401886,0.019412187859416008
1702338756747599600,15.216599609375,9.699341773986816,0.1484309285879135,0.02568499557673931
1702338756846862000,15.315862060546875,9.722527503967285,0.1404055655002594,0.02751416526734829
1702338756946126000,15.4151259765625,9.716312408447266,0.14757859706878662,0.02296518348157406
1702338757045388500,15.514388427734374,9.712692260742188,0.13874877989292145,0.03002328798174858
1702338757144652500,15.613652587890625,9.74166202545166,0.12868355214595795,0.03924575448036194
1702338757243916800,15.712916748046876,9.770191192626953,0.11415553838014603,0.016548721119761467
1702338757343179300,15.81217919921875,9.729921340942383,0.12860693037509918,0.04689761996269226
1702338757442441700,15.911441650390625,9.70676326751709,0.14750199019908905,0.02623087354004383
1702338757541704200,16.0107041015625,9.712825775146484,0.14107593894004822,0.028021736070513725
1702338757640968200,16.10996826171875,9.740809440612793,0.1514284610748291,0.025273192673921585
1702338757740230700,16.209230712890626,9.776435852050781,0.13383588194847107,0.010907982476055622
1702338757839495000,16.308494873046875,9.783177375793457,0.1295071542263031,0.029592333361506462
1702338757938757400,16.40775732421875,9.809149742126465,0.14106635749340057,0.02329079434275627
1702338758038021400,16.507021484375,9.772355079650879,0.141612246632576,0.027006596326828003
1702338758137283800,16.606283935546877,9.794889450073242,0.14876611530780792,0.014901511371135712
1702338758236547800,16.7055478515625,9.77525806427002,0.15208926796913147,0.03148854151368141
1702338758335810600,16.804810546875,9.81002140045166,0.14629530906677246,0.016012420877814293
1702338758435074600,16.904074462890627,9.808268547058105,0.1490342766046524,0.02137543261051178
1702338758534337000,17.0033369140625,9.818946838378906,0.13797305524349213,0.028289886191487312
1702338758633601000,17.10260107421875,9.808363914489746,0.1345924437046051,0.01957499235868454
1702338758732865000,17.201864990234377,9.818228721618652,0.14375744760036469,0.027255592867732048
1702338758832127700,17.301127685546874,9.831511497497559,0.1399650275707245,0.03189076483249664
1702338758931390200,17.40039013671875,9.843156814575195,0.14389152824878693,0.004271255806088448
1702338759030654200,17.499654296875,9.821991920471191,0.1443033367395401,0.02187342569231987
1702338759129916700,17.598916748046875,9.787439346313477,0.14438951015472412,0.0412377305328846
1702338759229179100,17.69817919921875,9.81618881225586,0.13991715013980865,0.02269703336060047
1702338759328443400,17.797443359375,9.803671836853027,0.1536598652601242,0.013742717914283276
1702338759427705900,17.896705810546877,9.787391662597656,0.16818788647651672,0.014872781001031399
1702338759526969900,17.995969970703126,9.779691696166992,0.1342380940914154,0.017707515507936478
1702338759626232300,18.095232421875,9.765057563781738,0.12841540575027466,0.030138209462165833
1702338759725496300,18.194496337890627,9.75774097442627,0.14347971975803375,0.028998570516705513
1702338759824758800,18.2937587890625,9.750875473022461,0.1414685994386673,0.03455311805009842
1702338759924021500,18.393021484375,9.744889259338379,0.1483830362558365,0.03138319402933121
1702338760023285500,18.492285400390625,9.732381820678711,0.14566323161125183,0.03262818232178688
1702338760122548000,18.5915478515625,9.754179000854492,0.14272314310073853,0.03314532712101936
1702338760221812000,18.69081201171875,9.741250038146973,0.1372164934873581,0.01458547729998827
1702338760321074400,18.790074462890626,9.731156349182129,0.14104720950126648,0.037244200706481934
1702338760420338700,18.889338623046875,9.741853713989258,0.14451400935649872,0.021605275571346283
1702338760519601200,18.98860107421875,9.738252639770508,0.14754028618335724,0.026767175644636154
1702338760618865200,19.087865234375,9.72895336151123,0.14698483049869537,0.028194118291139603
1702338760718127600,19.187127685546876,9.731511116027832,0.13916058838367462,0.020274098962545395
1702338760817391600,19.2863916015625,9.718648910522461,0.14188039302825928,0.031555578112602234
1702338760916654300,19.385654296875,9.785792350769043,0.11889605969190598,0.015485696494579315
1702338761015916800,19.484916748046874,9.705049514770508,0.1388445496559143,0.009979032911360264
1702338761115180800,19.584180908203123,9.749151229858398,0.13831782341003418,0.0235780980437994
1702338761214444800,19.68344482421875,9.689899444580078,0.12822386622428894,0.021145589649677277
1702338761313707300,19.782707275390624,9.713171005249023,0.13631626963615417,0.0184832364320755
1702338761412969700,19.8819697265625,9.700126647949219,0.14815320074558258,0.024612395092844963
1702338761512234000,19.98123388671875,9.708517074584961,0.1417175829410553,0.03407428041100502
1702338761611496400,20.080496337890626,9.713726997375488,0.14925453066825867,0.01767878606915474
1702338761710760400,20.179760498046875,9.713706970214844,0.13939999043941498,0.026058491319417953
1702338761810023000,20.27902294921875,9.778992652893066,0.1264425814151764,0.01349372137337923
1702338761909287000,20.378286865234376,9.665267944335938,0.14391067624092102,0.04310520738363266
1702338762008549600,20.477549560546876,9.697206497192383,0.14946521818637848,0.05151364579796791
1702338762107813600,20.576813720703125,9.705347061157227,0.14789462089538574,0.02873999811708927
1702338762207076000,20.676076171875,9.710125923156738,0.13962027430534363,0.02611595205962658
1702338762306338600,20.775338623046874,9.707884788513184,0.13307930529117584,0.02881661243736744
1702338762405602600,20.8746025390625,9.71369743347168,0.13791558146476746,0.034849997609853745
1702338762504865000,20.973864990234375,9.726387023925781,0.14080777764320374,0.01433647982776165
1702338762604129300,21.07312939453125,9.720171928405762,0.1480957269668579,0.025991452857851982
1702338762703391700,21.172391845703125,9.748815536499023,0.1452227085828781,0.019565416499972343
1702338762802655700,21.27165576171875,9.741345405578613,0.1462378352880478,0.03558741509914398
1702338762901918200,21.370918212890626,9.766916275024414,0.14449486136436462,0.020551826804876328
1702338763001182500,21.470182373046875,9.769137382507324,0.15133270621299744,0.02919010818004608
1702338763100445000,21.56944482421875,9.779681205749512,0.14721468091011047,0.03394020348787308
1702338763199707400,21.668707275390624,9.783780097961426,0.14333607256412506,0.013532028533518314
1702338763298971400,21.767971435546876,9.781271934509277,0.1522808074951172,0.018665198236703873
1702338763398235400,21.8672353515625,9.797455787658691,0.1452610045671463,0.02149035409092903
1702338763497497900,21.966497802734374,9.801727294921875,0.13985967636108398,0.023089680820703506
1702338763596760600,22.065760498046874,9.802014350891113,0.1361343115568161,0.02362598292529583
1702338763696024600,22.165024658203127,9.801037788391113,0.14985787868499756,0.02239057421684265
1702338763795287000,22.264287109375,9.807100296020508,0.13823163509368896,0.02806004323065281
1702338763894551000,22.363551025390624,9.79584789276123,0.13369223475456238,0.027945121750235558
1702338763993815000,22.46281494140625,9.811793327331543,0.14532804489135742,0.00771890627220273
1702338764093076000,22.562075927734377,9.805692672729492,0.16178098320960999,0.0027772739995270967
1702338764192340200,22.66134033203125,9.807780265808105,0.1509304791688919,0.032810140401124954
1702338764291602700,22.760602783203126,9.780658721923828,0.14687947928905487,0.027341783046722412
1702338764390866700,22.85986669921875,9.801861763000488,0.16143622994422913,0.0283186174929142
1702338764490129200,22.959129150390623,9.784402847290039,0.13814543187618256,0.02883576601743698
1702338764589393200,23.05839306640625,9.763947486877441,0.12437399476766586,0.025627534836530685
1702338764688656000,23.15765576171875,9.753182411193848,0.1410088986158371,0.01308191753923893
1702338764787920000,23.256919921875,9.762845993041992,0.1528649926185608,0.02433466538786888
1702338764887184000,23.356183837890626,9.747159004211426,0.1507389396429062,0.02713109366595745
1702338764986446300,23.4554462890625,9.751775741577148,0.15010687708854675,0.018310854211449623
1702338765085708800,23.554708740234375,9.728655815124512,0.14287637174129486,0.017238251864910126
1702338765184973000,23.65397314453125,9.739066123962402,0.1501164436340332,0.030061595141887665
1702338765284237000,23.753237060546876,9.7514009475708,0.14518438279628754,0.03151727095246315
1702338765383498000,23.852498046875,9.75207233428955,0.1443224847316742,0.027265168726444244
1702338765482762000,23.951761962890625,9.727746963500977,0.12847286462783813,0.015275007113814354
1702338765582024400,24.0510244140625,9.732085227966309,0.13785813748836517,0.02758120372891426
1702338765681288700,24.150288818359375,9.745147705078125,0.1276300996541977,0.03535757213830948
1702338765780551200,24.24955126953125,9.722728729248047,0.13991715013980865,0.02751416526734829
1702338765879815200,24.348815185546876,9.715909957885742,0.14127705991268158,0.02023579180240631
1702338765979077600,24.44807763671875,9.714597702026367,0.13906480371952057,0.028644230216741562
1702338766078341600,24.547341552734373,9.718552589416504,0.1385284960269928,0.03374866768717766
1702338766177604000,24.64660400390625,9.685982704162598,0.1507197916507721,0.014097059145569801
1702338766276868400,24.745868408203126,9.719482421875,0.13279201090335846,0.01398213766515255
1702338766376130800,24.845130859375,9.766532897949219,0.13376884162425995,0.014259865507483482
1702338766475393300,24.944393310546875,9.651247024536133,0.14553873240947723,0.04199429601430893
1702338766574657300,25.0436572265625,9.715957641601562,0.14277103543281555,0.024066515266895294
1702338766673919700,25.142919677734376,9.693346977233887,0.14620910584926605,0.0266618300229311
1702338766773184000,25.24218408203125,9.707855224609375,0.13693876564502716,0.035367149859666824
1702338766872446500,25.341446533203126,9.696956634521484,0.12605950236320496,0.027073632925748825
1702338766971710500,25.44071044921875,9.7177095413208,0.12211386114358902,0.030042441561818123
1702338767070973000,25.539972900390627,9.678157806396484,0.13265793025493622,0.02852930873632431
1702338767170237000,25.63923681640625,9.70748233795166,0.1278216391801834,0.027313053607940674
1702338767269499600,25.738499755859376,9.691192626953125,0.14498327672481537,0.02732262946665287
1702338767368763600,25.837763671875,9.706026077270508,0.14119085669517517,0.028500577434897423
1702338767468026000,25.937026123046873,9.701889991760254,0.12588712573051453,0.021212628111243248
1702338767567290000,26.0362900390625,9.727344512939453,0.13240893185138702,0.024392126128077507
1702338767666552600,26.135552490234375,9.721752166748047,0.14249330759048462,0.018895041197538376
1702338767765815000,26.23481494140625,9.74748420715332,0.13172897696495056,0.038067806512117386
1702338767865079300,26.334079345703124,9.754111289978027,0.1441788375377655,0.02341529354453087
1702338767964341800,26.433341796875,9.757434844970703,0.142320916056633,0.01069729309529066
1702338768063605800,26.532605712890625,9.784537315368652,0.14626656472682953,0.03670790046453476
1702338768162868200,26.6318681640625,9.769932746887207,0.1496567577123642,0.008810662664473057
1702338768262132200,26.73113232421875,9.78335952758789,0.1462378352880478,0.037665579468011856
1702338768361395000,26.83039501953125,9.797226905822754,0.13608641922473907,0.022218191996216774
1702338768460659000,26.929658935546875,9.78276538848877,0.1429242640733719,0.015246276743710041
1702338768559921400,27.02892138671875,9.817155838012695,0.15231910347938538,0.030157363042235374
1702338768659185400,27.128185302734376,9.80321216583252,0.1322365403175354,0.02815581113100052
1702338768758447900,27.22744775390625,9.792476654052734,0.135904461145401,0.021911732852458954
1702338768857710300,27.32671044921875,9.806889533996582,0.1346977800130844,0.02127966471016407
1702338768956974600,27.425974609375,9.761486053466797,0.15198391675949097,0.023089680820703506
1702338769056237000,27.525237060546875,9.825421333312988,0.13082875311374664,0.004817133769392967
1702338769155501000,27.6245009765625,9.785466194152832,0.1499057561159134,0.03583640977740288
1702338769254763500,27.723763427734376,9.797369956970215,0.14014698565006256,0.026192566379904747
1702338769354027800,27.82302783203125,9.780370712280273,0.14237838983535767,0.023204602301120758
1702338769453291800,27.922291748046874,9.779394149780273,0.14622825384140015,0.028682537376880646
1702338769552554200,28.02155419921875,9.464385032653809,0.18112614750862122,0.05263412743806839
1702338769651816700,28.120816650390626,9.956786155700684,0.13193008303642273,0.017123330384492874
1702338769751080700,28.220080810546875,9.810930252075195,0.13053187727928162,-0.003849876346066594
1702338769850343200,28.31934326171875,9.766475677490234,0.13968729972839355,0.033308133482933044
1702338769949607400,28.418607421875,9.680877685546875,0.14222516119480133,0.03509899601340294
1702338770048870000,28.517869873046877,9.7150297164917,0.11209652572870255,-0.00016280572162941098
1702338770148132400,28.61713232421875,9.795120239257812,0.12818555533885956,0.004683058708906174
1702338770247394800,28.716394775390626,9.764569282531738,0.1333378702402115,0.014911088161170483
1702338770346658800,28.815658935546875,9.688730239868164,0.14521311223506927,0.021576546132564545
1702338770445923000,28.914923095703124,9.678694725036621,0.14924496412277222,0.018569426611065865
1702338770545185500,29.014185546875,9.70911979675293,0.12751518189907074,0.01772666908800602
1702338770644449500,29.113449462890625,9.720391273498535,0.12070606648921967,0.03168965503573418
1702338770743712000,29.2127119140625,9.714483261108398,0.1362396478652954,0.016031574457883835
1702338770842974500,29.311974365234374,9.71004867553711,0.1398022323846817,0.02782062254846096
1702338770942238500,29.411238525390626,9.608142852783203,0.152951180934906,0.045365333557128906
1702338771041502700,29.510502685546875,9.696574211120605,0.13442005217075348,0.021854272112250328
1702338771140765200,29.60976513671875,9.718658447265625,0.1303403526544571,0.032379183918237686
1702338771240027600,29.709027587890624,9.668475151062012,0.15951129794120789,0.04791276529431343
1702338771339291600,29.808291748046877,9.674758911132812,0.13562673330307007,0.024947581812739372
1702338771438554000,29.90755419921875,9.701104164123535,0.14281892776489258,0.018808849155902863
1702338771537816800,30.00681689453125,9.705193519592285,0.13289734721183777,0.02822284959256649
1702338771637080800,30.106080810546874,9.693519592285156,0.14721468091011047,0.03634398430585861
1702338771736343300,30.20534326171875,9.701611518859863,0.1388828605413437,0.029554026201367378
1702338771835607300,30.304607177734376,9.71091079711914,0.1360289603471756,0.03933194652199745
1702338771934869800,30.403869873046876,9.687294006347656,0.13551181554794312,0.03145023435354233
1702338772034134000,30.503134033203125,9.697282791137695,0.13680468499660492,0.02007298730313778
1702338772133396500,30.602396484375,9.714559555053711,0.14094185829162598,0.03215891495347023
1702338772232660500,30.701660400390626,9.68382740020752,0.14597927033901215,0.024468740448355675
1702338772331923000,30.8009228515625,9.695127487182617,0.1464676856994629,0.03283886983990669
1702338772431187000,30.90018701171875,9.713841438293457,0.13938084244728088,0.03199611231684685
1702338772530451200,30.999451171875,9.745282173156738,0.12745772302150726,0.020599711686372757
1702338772629713700,31.098713623046876,9.659981727600098,0.13808798789978027,0.02547430619597435
1702338772728976100,31.19797607421875,9.748126029968262,0.14343184232711792,0.01878969557583332
1702338772828240100,31.297240234375,9.727459907531738,0.14461936056613922,0.02592441625893116
1702338772927502600,31.396502685546874,9.771761894226074,0.1322557032108307,0.006119579542428255
1702338773026765000,31.49576513671875,9.774280548095703,0.142071932554245,0.018904617056250572
1702338773126029300,31.595029296875,9.774261474609375,0.1488044261932373,0.02873999811708927
1702338773225291800,31.694291748046876,9.773313522338867,0.1525968313217163,0.017257405444979668
1702338773324555800,31.7935556640625,9.78068733215332,0.14984829723834991,0.015954960137605667
1702338773423818200,31.892818359375,9.796546936035156,0.13864342868328094,0.025455152615904808
1702338773523082200,31.992082275390626,9.779231071472168,0.14481090009212494,0.01698925532400608
1702338773622345000,32.091344970703126,9.793204307556152,0.13749422132968903,0.023779211565852165
1702338773721609000,32.19060888671875,9.799276351928711,0.1362779587507248,0.019756952300667763
1702338773820873000,32.289873046875,9.797935485839844,0.14323072135448456,0.02981259860098362
1702338773920135400,32.389135498046876,9.801813125610352,0.14247414469718933,0.01883758045732975
1702338774019398000,32.48839794921875,9.806142807006836,0.14277103543281555,0.020609289407730103
1702338774118660400,32.587660400390625,9.80125904083252,0.1364886462688446,0.014413094148039818
1702338774217924600,32.68692456054688,9.811113357543945,0.15146678686141968,0.020053833723068237
1702338774317187000,32.78618701171875,9.786529541015625,0.1541578471660614,0.008207323029637337
1702338774416451000,32.885451171875,9.792677879333496,0.14415967464447021,0.038307227194309235
1702338774515713500,32.98471362304687,9.772279739379883,0.14068329334259033,0.018636466935276985
1702338774614977500,33.0839775390625,9.7675199508667,0.14188039302825928,0.01782243698835373
1702338774714240300,33.183240234375,9.752723693847656,0.13983096182346344,0.029678523540496826
1702338774813504300,33.28250415039062,9.729106903076172,0.1468220204114914,0.02855803817510605
1702338774912766700,33.3817666015625,9.747982025146484,0.1414685994386673,0.03326982632279396
1702338775012030700,33.48103076171875,9.71548843383789,0.14633360505104065,0.031555578112602234
1702338775111293200,33.58029321289062,9.725525856018066,0.14864161610603333,0.025301923975348473
1702338775210555600,33.6795556640625,9.713458061218262,0.14233051240444183,0.017027562484145164
1702338775309820000,33.77881982421875,9.717452049255371,0.14957056939601898,0.026125527918338776
1702338775409082400,33.878082275390625,9.704255104064941,0.1401757150888443,0.02099236100912094
1702338775508346400,33.97734643554688,9.69832706451416,0.15217545628547668,0.023999476805329323
1702338775607608800,34.07660888671875,9.714856147766113,0.12476664036512375,0.03380613029003143
1702338775706873000,34.175873046875,9.716445922851562,0.14579729735851288,0.022428881376981735
1702338775806135600,34.27513549804687,9.735360145568848,0.1522808074951172,0.03315490484237671
1702338775905399600,34.374399658203124,9.759857177734375,0.14747324585914612,0.0169413723051548
1702338776004662000,34.473662109375,9.76369857788086,0.13513831794261932,-0.028663383796811104
1702338776103926000,34.57292602539062,9.515572547912598,0.16898275911808014,0.08602845668792725
1702338776203188500,34.6721884765625,9.743213653564453,0.1423879712820053,0.029237991198897362
1702338776302452700,34.77145263671875,9.775879859924316,0.14121001958847046,0.008255206979811192
1702338776401715200,34.87071508789062,9.735255241394043,0.13789643347263336,0.02642240934073925
1702338776500979200,34.969979248046876,9.733903884887695,0.13182474672794342,0.020561402663588524
1702338776600241700,35.06924169921875,9.706543922424316,0.14676456153392792,0.0037828385829925537
1702338776699504000,35.168504150390625,9.72520923614502,0.14302003383636475,0.031766269356012344
1702338776798768400,35.26776831054688,9.707626342773438,0.14415967464447021,0.019900605082511902
1702338776898030800,35.36703076171875,9.715239524841309,0.1401948630809784,0.01399171445518732
1702338776997294800,35.466294921875,9.69140338897705,0.1614075005054474,0.028826188296079636
1702338777096557300,35.56555737304687,9.704838752746582,0.12707464396953583,0.018061857670545578
1702338777195821300,35.6648212890625,9.691757202148438,0.1335102617740631,0.03238875791430473
1702338777295083800,35.764083740234376,9.706103324890137,0.1503654420375824,0.029707254841923714
1702338777394348000,35.86334814453125,9.703995704650879,0.13620133697986603,0.027696125209331512
1702338777493610500,35.962610595703126,9.718189239501953,0.14321155846118927,0.02243845723569393
1702338777592874500,36.06187451171875,9.706046104431152,0.14461936056613922,0.03552995249629021
1702338777692137000,36.16113696289062,9.731922149658203,0.13730266690254211,0.015954960137605667
1702338777791399400,36.2603994140625,9.747197151184082,0.14231134951114655,0.00031603462412022054
1702338777890663700,36.35966357421875,9.766016006469727,0.13667060434818268,0.019345149397850037
1702338777989926100,36.458926025390625,9.739641189575195,0.1579502671957016,0.03722504898905754
1702338778089190100,36.55819018554688,9.760845184326172,0.13906480371952057,0.030492553487420082
1702338778188452600,36.65745263671875,9.766667366027832,0.13207374513149261,0.01698925532400608
1702338778287716600,36.756716552734375,9.786835670471191,0.13912226259708405,0.02841438539326191
1702338778386979300,36.85597924804687,9.779289245605469,0.15652333199977875,0.024305934086441994
1702338778486243300,36.955243408203124,9.795914649963379,0.1326770782470703,0.009730035439133644
1702338778585505800,37.054505859375,9.791633605957031,0.15990394353866577,0.032714370638132095
1702338778684769800,37.15376977539062,9.816054344177246,0.1311926692724228,0.020848708227276802
1702338778784032300,37.2530322265625,9.792993545532227,0.14673584699630737,0.024602817371487617
1702338778883296500,37.35229663085938,9.79918098449707,0.14723382890224457,0.028749573975801468
1702338778982559000,37.45155908203125,9.811380386352539,0.15110285580158234,0.03820187970995903
1702338779081823000,37.550822998046876,9.797274589538574,0.14206235110759735,0.04035666212439537
1702338779181085400,37.65008544921875,9.80335521697998,0.15886007249355316,0.020254945382475853
1702338779280348000,37.749347900390624,9.790321350097656,0.14306791126728058,0.026288334280252457
1702338779379610400,37.8486103515625,9.787477493286133,0.13870090246200562,0.021796811372041702
1702338779478874600,37.94787451171875,9.785513877868652,0.1393616944551468,0.029735984280705452
1702338779578137000,38.04713720703125,9.783780097961426,0.15104539692401886,0.024679431691765785
1702338779677401000,38.14640112304688,9.762730598449707,0.14235924184322357,0.014144943095743656
1702338779776665000,38.2456650390625,9.756649017333984,0.12978488206863403,0.02806004323065281
1702338779875927600,38.344927490234376,9.74122142791748,0.15184026956558228,0.02507208101451397
1702338779975190300,38.44419018554687,9.714808464050293,0.1461133360862732,0.028165388852357864
1702338780074454300,38.543454345703125,9.702808380126953,0.15114115178585052,0.02248634211719036
1702338780173716700,38.642716796875,9.714310646057129,0.13510000705718994,0.03380613029003143
1702338780272980700,38.74198071289062,9.713438987731934,0.1407407522201538,0.022946029901504517
1702338780372243200,38.8412431640625,9.717116355895996,0.13981179893016815,0.016979679465293884
1702338780471505700,38.94050561523437,9.722862243652344,0.1399458795785904,0.02632664144039154
1702338780570770000,39.03977001953125,9.745491981506348,0.13230359554290771,0.036123715341091156
1702338780670032400,39.13903247070313,9.729720115661621,0.13600023090839386,0.0412377305328846
1702338780769296400,39.23829638671875,9.723255157470703,0.13583743572235107,0.018148047849535942
1702338780868558800,39.337558837890626,9.722373962402344,0.14206235110759735,0.014719552360475063
1702338780967822800,39.43682275390625,9.706610679626465,0.14744451642036438,0.0257137268781662
1702338781067085600,39.53608544921875,9.729996681213379,0.13787728548049927,0.014623784460127354
1702338781166349600,39.635349609375,9.720132827758789,0.1385955512523651,0.026106374338269234
1702338781265613600,39.73461352539063,9.70438003540039,0.1384902000427246,0.04553771764039993
1702338781364876000,39.8338759765625,9.69166088104248,0.13805924355983734,0.027906814590096474
1702338781464138500,39.93313842773438,9.702042579650879,0.14661133289337158,0.018914194777607918
1702338781563402800,40.03240283203125,9.700300216674805,0.13929466903209686,0.0178894754499197
1702338781662665200,40.13166528320313,9.679230690002441,0.1472625583410263,0.034112587571144104
1702338781761927700,40.230927734375,9.68535041809082,0.14569196105003357,0.03308786824345589
1702338781861193200,40.33019311523437,9.695693016052246,0.13947661221027374,0.023444022983312607
1702338781960454100,40.4294541015625,9.695769309997559,0.1375516802072525,0.03730166330933571
1702338782059718400,40.52871850585937,9.693318367004395,0.13420936465263367,0.020350713282823563
1702338782158980900,40.62798095703125,9.693193435668945,0.14241668581962585,0.024554934352636337
1702338782258244900,40.72724487304688,9.690760612487793,0.14668793976306915,0.017908629029989243
1702338782357507300,40.82650732421875,9.698699951171875,0.13754209876060486,0.012344504706561565
1702338782456771300,40.925771240234376,9.694830894470215,0.14594095945358276,0.027475858107209206
1702338782556033800,41.02503369140625,9.693854331970215,0.1478467434644699,0.029305029660463333
1702338782655298000,41.124298095703125,9.719491004943848,0.13028287887573242,0.020245369523763657
1702338782754560500,41.223560546875,9.720698356628418,0.1509879231452942,0.021595699712634087
1702338782853824500,41.32282446289062,9.719893455505371,0.14945563673973083,0.021739350631833076
1702338782953087000,41.4220869140625,9.745329856872559,0.15928144752979279,0.04258805885910988
1702338783052349400,41.52134936523437,9.751544952392578,0.14835430681705475,0.024564510211348534
1702338783151613700,41.62061376953125,9.760193824768066,0.14164097607135773,0.021815964952111244
1702338783250876200,41.71987622070313,9.763161659240723,0.14295299351215363,0.030339322984218597
1702338783350140200,41.81914013671875,9.79116439819336,0.12276508659124374,0.019843144342303276
1702338783449402600,41.918402587890625,9.784939765930176,0.13596193492412567,0.02301306650042534
1702338783548666600,42.01766650390625,9.792150497436523,0.1331559121608734,0.01836831495165825
1702338783647929000,42.11692919921875,9.792093276977539,0.14819151163101196,0.030348900705575943
1702338783747193300,42.216193359375,9.801143646240234,0.1522424966096878,0.02689167484641075
1702338783846455800,42.31545581054687,9.786816596984863,0.13830824196338654,0.03116292878985405
1702338783945719800,42.4147197265625,9.791787147521973,0.1510549783706665,0.022007500752806664
1702338784044982300,42.51398217773438,9.809121131896973,0.13784855604171753,0.01597411371767521
1702338784144244700,42.61324462890625,9.807052612304688,0.14966633915901184,0.009222464635968208
1702338784243509000,42.712509033203126,9.80979061126709,0.1395915448665619,0.02319502644240856
1702338784342773000,42.81177294921875,9.804418563842773,0.1408461034297943,0.038115691393613815
1702338784442035500,42.911035400390624,9.787696838378906,0.15468458831310272,0.029180530458688736
1702338784541298000,43.0102978515625,9.785293579101562,0.1480957269668579,0.022352267056703568
1702338784640562000,43.10956201171875,9.777737617492676,0.1482393890619278,0.015217546373605728
1702338784739824600,43.20882470703125,9.783684730529785,0.14775097370147705,0.0018866308964788914
1702338784839088600,43.30808862304688,9.752819061279297,0.14118129014968872,0.02616383507847786
1702338784938351000,43.40735107421875,9.749734878540039,0.1529894918203354,0.03286759927868843
1702338785037615000,43.506614990234375,9.721492767333984,0.13774320483207703,0.02123178169131279
1702338785136877600,43.60587768554687,9.742016792297363,0.1425507664680481,0.021528661251068115
1702338785236141800,43.705141845703125,9.742131233215332,0.12763968110084534,0.02511996403336525
1702338785335404300,43.804404296875,9.713391304016113,0.13848061859607697,0.027638664469122887
1702338785434668300,43.90366821289062,9.710546493530273,0.1406545490026474,0.026144681498408318
1702338785533930800,44.0029306640625,9.718735694885254,0.1255040466785431,0.031862035393714905
1702338785633193200,44.10219311523438,9.710805892944336,0.14937902987003326,0.02012087032198906
1702338785732455700,44.20145556640625,9.703344345092773,0.14218685030937195,0.019230227917432785
1702338785831720000,44.30071997070313,9.701123237609863,0.13917015492916107,0.027811046689748764
1702338785930984000,44.39998388671875,9.67898178100586,0.13737928867340088,0.022380996495485306
1702338786030246400,44.499246337890625,9.711150169372559,0.15019305050373077,0.0444268062710762
1702338786129510400,44.59851049804688,9.706964492797852,0.14201445877552032,0.022304382175207138
1702338786228772900,44.69777294921875,9.72628116607666,0.1346977800130844,0.026642676442861557
1702338786328037000,44.797037109375,9.731616020202637,0.12953588366508484,0.024372972548007965
1702338786427299600,44.89629956054687,9.712491035461426,0.143613800406456,0.03241749107837677
1702338786526563600,44.9955634765625,9.707079887390137,0.1308191865682602,0.02237142063677311
1702338786625826000,45.09482592773438,9.723570823669434,0.14449486136436462,0.030454246327280998
1702338786725088500,45.19408862304687,9.729460716247559,0.13014879822731018,0.020197484642267227
1702338786824351000,45.29335107421875,9.74487018585205,0.1470518708229065,0.027236439287662506
1702338786923615200,45.392615234375,9.73889446258545,0.14828728139400482,0.015016432851552963
1702338787022877700,45.491877685546875,9.72602367401123,0.1482010781764984,0.030741550028324127
1702338787122141700,45.5911416015625,9.748087882995605,0.12795571982860565,0.027571626007556915
1702338787221405700,45.69040576171875,9.720813751220703,0.1293826550245285,0.011722011491656303
1702338787320668200,45.789668212890625,9.731472969055176,0.14914917945861816,0.02288856916129589
1702338787419932400,45.88893237304688,9.73522663116455,0.13243766129016876,0.032762255519628525
1702338787519195000,45.98819482421875,9.73494815826416,0.1357608139514923,0.03439031168818474
1702338787618459000,46.087458984375,9.721406936645508,0.13020627200603485,0.0050661307759583
1702338787717721300,46.18672143554687,9.723858833312988,0.15040375292301178,0.028950687497854233
1702338787816985300,46.2859853515625,9.726301193237305,0.13531069457530975,0.02303222008049488
1702338787916248000,46.385248046875,9.748374938964844,0.14873738586902618,0.032972946763038635
1702338788015510500,46.48451049804687,9.75294303894043,0.1366131454706192,0.033020827919244766
1702338788114774500,46.5837744140625,9.766417503356934,0.14734876155853271,0.015667656436562538
1702338788214038500,46.68303857421875,9.779950141906738,0.13832738995552063,0.04597824811935425
1702338788313301000,46.78230102539062,9.787879943847656,0.1401565670967102,0.03348051756620407
1702338788412563700,46.88156372070313,9.782947540283203,0.14766478538513184,0.0247656237334013
1702338788511827700,46.98082763671875,9.778360366821289,0.14933115243911743,0.028021736070513725
1702338788611090200,47.080090087890625,9.809159278869629,0.1374271810054779,0.018895041197538376
1702338788710352600,47.1793525390625,9.776588439941406,0.13300268352031708,0.01978568360209465
1702338788809616600,47.27861669921875,9.796019554138184,0.13910311460494995,0.010065224021673203
1702338788908879000,47.377879150390626,9.795397758483887,0.1393233835697174,0.030396783724427223
1702338789008143400,47.47714331054687,9.803394317626953,0.13168108463287354,0.0360279455780983
1702338789107405800,47.57640576171875,9.802340507507324,0.14069287478923798,0.027092786505818367
1702338789206669800,47.675669921875,9.813632011413574,0.1572607457637787,0.026815060526132584
1702338789305932300,47.77493237304687,9.803153991699219,0.15229037404060364,0.024200590327382088
1702338789405196300,47.8741962890625,9.785944938659668,0.13981179893016815,0.02468900941312313
1702338789504459000,47.973458984375,9.783052444458008,0.14585477113723755,0.02516784891486168
1702338789603721500,48.072721435546875,9.786758422851562,0.13620133697986603,0.03291548416018486
1702338789702985500,48.1719853515625,9.77365779876709,0.1370057910680771,0.01534204464405775
1702338789802248000,48.271248046875,9.765057563781738,0.14270399510860443,0.03255156800150871
1702338789901512000,48.370511962890625,9.753106117248535,0.13396036624908447,0.024612395092844963
1702338790000774400,48.4697744140625,9.740283012390137,0.14101848006248474,0.0267767533659935
1702338790100038700,48.56903857421875,9.727133750915527,0.14912045001983643,0.025866955518722534
1702338790199301000,48.668301025390626,9.718975067138672,0.13737928867340088,0.015006856061518192
1702338790298565000,48.76756518554687,9.705011367797852,0.14211980998516083,0.010639832355082035
1702338790397827600,48.86682763671875,9.702272415161133,0.1311543732881546,0.029649794101715088
1702338790497091600,48.966091552734376,9.701630592346191,0.14354676008224487,0.03097139298915863
1702338790596354300,49.06535424804687,9.71663761138916,0.13327084481716156,0.03741658478975296
1702338790695618300,49.164618408203125,9.704676628112793,0.1390935331583023,0.012746729888021946
1702338790794880800,49.263880859375,9.699034690856934,0.1461995393037796,0.024583663791418076
1702338790894143200,49.363143310546874,9.70356559753418,0.14580687880516052,0.025014620274305344
1702338790993407200,49.4624072265625,9.690367698669434,0.13927549123764038,0.03243664652109146
1702338791092670000,49.561669921875,9.699007034301758,0.13965857028961182,0.030224401503801346
1702338791191934000,49.660933837890624,9.697225570678711,0.14193785190582275,0.02748543582856655
1702338791291196400,49.76019653320313,9.706313133239746,0.13706326484680176,0.019565416499972343
1702338791390460400,49.85946044921875,9.700798034667969,0.127486452460289,0.022926876321434975
1702338791489723000,49.958722900390626,9.69881534576416,0.12752476334571838,0.03194822743535042
1702338791588987100,50.05798706054688,9.686193466186523,0.13758040964603424,0.04506845027208328
1702338791688249600,50.15724951171875,9.69604778289795,0.13926592469215393,0.031249120831489563
1702338791787513600,50.256513671875,9.68490982055664,0.13266751170158386,0.02158612199127674
1702338791886776000,50.35577612304687,9.690991401672363,0.12926773726940155,0.01967076025903225
1702338791986038500,50.45503857421875,9.694419860839844,0.13918931782245636,0.025991452857851982
1702338792085302500,50.55430249023438,9.700576782226562,0.14817234873771667,0.02481350675225258
1702338792184565200,50.653565185546874,9.69774341583252,0.12816640734672546,0.021950040012598038
1702338792283829200,50.75282934570313,9.69853687286377,0.13309846818447113,0.026154259219765663
1702338792383093200,50.85209326171875,9.715938568115234,0.14020445942878723,0.03118208236992359
1702338792482355700,50.951355712890624,9.705327033996582,0.13893073797225952,0.030578745529055595
1702338792581618200,51.0506181640625,9.705288887023926,0.14131537079811096,0.028232425451278687
1702338792680882400,51.14988232421875,9.711915969848633,0.14762647449970245,0.02692040428519249
1702338792780145000,51.249144775390626,9.720890045166016,0.13762830197811127,0.024708162993192673
1702338792879409000,51.34840893554688,9.723963737487793,0.13614389300346375,0.019182344898581505
1702338792978671400,51.44767138671875,9.732151985168457,0.135904461145401,0.031364042311906815
1702338793077935400,51.546935302734376,9.754034996032715,0.1391126960515976,0.022476764395833015
1702338793177198000,51.64619799804687,9.76302719116211,0.15194562077522278,0.028098350390791893
1702338793276460500,51.74546044921875,9.768572807312012,0.1479042023420334,0.020906168967485428
1702338793375724500,51.844724609375,9.79148006439209,0.1435754895210266,0.021748928353190422
1702338793474987000,51.943987060546874,9.780820846557617,0.14174632728099823,0.019393034279346466
1702338793574251000,52.0432509765625,9.797867774963379,0.14227303862571716,0.03293463960289955
1702338793673513500,52.14251342773437,9.79525375366211,0.14756901562213898,0.02336740866303444
1702338793772777700,52.24177783203125,9.803556442260742,0.14461936056613922,0.015763424336910248
1702338793872040200,52.34104028320313,9.811083793640137,0.1242973804473877,0.023597251623868942
1702338793971304200,52.44030419921875,9.80321216583252,0.13593319058418274,0.025196578353643417
1702338794070566700,52.539566650390626,9.813468933105469,0.15182112157344818,0.014068328775465488
1702338794169830700,52.63883056640625,9.809944152832031,0.14816278219223022,0.012574347667396069
1702338794269093400,52.73809326171875,9.797696113586426,0.1447821706533432,0.03260902687907219
1702338794368355800,52.83735595703125,9.810691833496094,0.14176547527313232,0.031268272548913956
1702338794467619800,52.93661987304687,9.79806900024414,0.14518438279628754,0.01692221872508526
1702338794566882300,53.03588232421875,9.791221618652344,0.1399650275707245,0.012670115567743778
1702338794666146300,53.13514624023438,9.783004760742188,0.1398213803768158,0.021643582731485367
1702338794765409000,53.234408935546874,9.7821044921875,0.1338454633951187,0.030415939167141914
1702338794864671500,53.33367138671875,9.771723747253418,0.1412578970193863,0.02852930873632431
1702338794963935500,53.432935546875,9.752503395080566,0.1562647521495819,0.023568522185087204
1702338795063199500,53.532199462890624,9.741681098937988,0.1354064792394638,0.018598157912492752
1702338795162462000,53.6314619140625,9.743366241455078,0.1425699144601822,0.03118208236992359
1702338795261724400,53.73072436523437,9.733847618103027,0.15028883516788483,0.02986048348248005
1702338795360988700,53.82998876953125,9.726760864257812,0.12241074442863464,0.032781410962343216
1702338795460252700,53.92925268554688,9.720736503601074,0.14468640089035034,0.02563711255788803
1702338795559515100,54.02851513671875,9.714262962341309,0.13072341680526733,0.018444929271936417
1702338795658779100,54.127779052734375,9.714262962341309,0.14098018407821655,0.022352267056703568
1702338795758041600,54.22704150390625,9.704800605773926,0.1365077942609787,0.03156515583395958
1702338795857304300,54.32630419921875,9.70503044128418,0.13464990258216858,0.026393678039312363
1702338795956568300,54.425568359375,9.69343376159668,0.13321338593959808,0.02274491637945175
1702338796055830800,54.524830810546874,9.702003479003906,0.1388828605413437,0.021174320951104164
1702338796155094800,54.6240947265625,9.728330612182617,0.13532984256744385,0.02542642131447792
1702338796254357200,54.72335717773438,9.726147651672363,0.13816459476947784,0.027092786505818367
1702338796353619700,54.82261962890625,9.730466842651367,0.13122139871120453,0.02668098360300064
1702338796452884000,54.92188403320313,9.741164207458496,0.142320916056633,0.021902156993746758
1702338796552148000,55.02114794921875,9.73233413696289,0.13124056160449982,0.03215891495347023
1702338796651410400,55.120410400390625,9.712050437927246,0.1485937386751175,0.0308085884898901
1702338796750673000,55.2196728515625,9.718486785888672,0.13514789938926697,0.028289886191487312
1702338796849937000,55.31893701171875,9.709379196166992,0.13454455137252808,0.02941037341952324
1702338796949199600,55.41819970703125,9.743204116821289,0.13309846818447113,0.019163191318511963
1702338797048463600,55.51746362304687,9.71042251586914,0.14021404087543488,0.011923124082386494
1702338797147726000,55.61672607421875,9.723495483398438,0.1464485377073288,0.022802377119660378
1702338797246988500,55.71598852539063,9.7001371383667,0.13460202515125275,0.023807941004633904
1702338797346252500,55.81525244140625,9.72694206237793,0.14118129014968872,0.01898123137652874
1702338797445515300,55.91451538085938,9.717605590820312,0.14539508521556854,0.021997924894094467
1702338797544779300,56.013779296875,9.741355895996094,0.13961069285869598,0.00759440753608942
1702338797644041700,56.113041748046875,9.730466842651367,0.14306791126728058,0.02405693754553795
1702338797743305700,56.2123056640625,9.750165939331055,0.1331559121608734,0.03809653967618942
1702338797842568200,56.31156811523437,9.759072303771973,0.13651737570762634,0.025483882054686546
1702338797941832400,56.41083251953125,9.76668643951416,0.13483186066150665,0.02301306650042534
1702338798041095000,56.51009497070312,9.777900695800781,0.14030979573726654,0.0326952189207077
1702338798140359000,56.60935888671875,9.77294921875,0.14750199019908905,0.026642676442861557
1702338798239621400,56.70862133789063,9.78477668762207,0.14819151163101196,0.02331952564418316
1702338798338885400,56.80788549804687,9.78402042388916,0.12730449438095093,0.0267767533659935
1702338798438147800,56.90714794921875,9.786481857299805,0.1485745906829834,0.0489279069006443
1702338798537410600,57.00641064453125,9.781012535095215,0.1451748162508011,0.019756952300667763
1702338798636674600,57.10567456054687,9.815239906311035,0.13202586770057678,0.02568499557673931
1702338798735937000,57.20493701171875,9.787506103515625,0.14635276794433594,0.013158531859517097
1702338798835201000,57.30420092773438,9.790283203125,0.14082695543766022,0.015725117176771164
1702338798934463500,57.40346337890625,9.78974723815918,0.14741578698158264,0.017190368846058846
1702338799033727700,57.50272778320313,9.808441162109375,0.1365939974784851,0.025493459776043892
1702338799132990200,57.601990234375,9.790436744689941,0.14120043814182281,0.02073378674685955
1702338799232254200,57.701254150390625,9.79415225982666,0.1436329483985901,0.020867861807346344
1702338799331516700,57.8005166015625,9.808000564575195,0.13947661221027374,0.015916652977466583
1702338799430780700,57.89978076171875,9.772393226623535,0.15565183758735657,0.03391147404909134
1702338799530043400,57.99904345703125,9.790168762207031,0.1339891105890274,0.023798365145921707
1702338799629307400,58.09830737304687,9.798079490661621,0.1394861936569214,0.02661394700407982
1702338799728569900,58.19756982421875,9.774375915527344,0.1452227085828781,0.018818426877260208
1702338799827832300,58.29683227539063,9.764090538024902,0.13676637411117554,0.013809755444526672
1702338799927096300,58.39609643554687,9.763592720031738,0.13275370001792908,0.01784159056842327
1702338800026358800,58.49535888671875,9.749208450317383,0.13647907972335815,0.017860744148492813
1702338800125623000,58.594623046875,9.756285667419434,0.1406545490026474,0.014508862048387527
1702338800224885500,58.693885498046875,9.722182273864746,0.1463240385055542,0.0107834842056036
1702338800324149500,58.7931494140625,9.733454704284668,0.1277354508638382,0.022543802857398987
1702338800423412000,58.89241186523437,9.715450286865234,0.13872963190078735,0.020810401067137718
1702338800522676000,58.991676025390625,9.71904182434082,0.12680649757385254,0.015476119704544544
1702338800621938700,59.09093872070312,9.704456329345703,0.13665145635604858,0.03694731742143631
1702338800721202700,59.19020263671875,9.69571304321289,0.14474384486675262,0.035817258059978485
1702338800820465200,59.289465087890626,9.701706886291504,0.14564406871795654,0.02021663822233677
1702338800919727600,59.3887275390625,9.683597564697266,0.13394121825695038,0.03279098495841026
1702338801018991600,59.48799169921875,9.693806648254395,0.13501381874084473,0.008801085874438286
1702338801118254300,59.58725439453125,9.69178581237793,0.1295263022184372,0.02983175218105316
1702338801217518300,59.68651831054687,9.702310562133789,0.14214853942394257,0.00869574025273323
1702338801316780800,59.78578076171875,9.711341857910156,0.13050314784049988,0.01623268611729145
1702338801416044800,59.885044921875,9.708248138427734,0.14424586296081543,0.02851015515625477
1702338801515307300,59.984307373046875,9.713286399841309,0.13457328081130981,0.021097706630825996
1702338801614571500,60.08357153320313,9.723389625549316,0.14039598405361176,0.02836650051176548
1702338801713835500,60.18283544921875,9.722067832946777,0.15004940330982208,0.020417751744389534
1702338801813098000,60.282097900390625,9.728504180908203,0.14001290500164032,0.02637452445924282
1702338801912360400,60.3813603515625,9.694276809692383,0.13704410195350647,0.019115306437015533
1702338802011624400,60.48062451171875,9.709014892578125,0.14277103543281555,0.03358586132526398
1702338802110887000,60.579886962890626,9.701372146606445,0.13252384960651398,0.013311761431396008
1702338802210149600,60.67914965820312,9.699877738952637,0.13877750933170319,0.024679431691765785
1702338802309413600,60.77841357421875,9.707558631896973,0.14287637174129486,0.03622906282544136
1702338802408676000,60.87767602539063,9.70569133758545,0.12461341172456741,0.02502419613301754
1702338802507938600,60.9769384765625,9.695444107055664,0.1297178566455841,0.03296336904168129
1702338802607202600,61.07620263671875,9.70032787322998,0.1449066549539566,0.02756205014884472
1702338802706466800,61.175466796875,9.697052955627441,0.13325169682502747,0.0059088896960020065
1702338802805729300,61.274729248046874,9.715306282043457,0.13985967636108398,0.028347346931695938
1702338802904993300,61.3739931640625,9.721378326416016,0.14173674583435059,0.02765781804919243
1702338803004255700,61.473255859375,9.729087829589844,0.1513039767742157,0.033825282007455826
1702338803103519700,61.572519775390624,9.758871078491211,0.12747687101364136,0.018167201429605484
1702338803202782500,61.67178247070313,9.74685287475586,0.1476168930530548,0.008781932294368744
1702338803302046500,61.77104638671875,9.750482559204102,0.15314272046089172,0.02791639044880867
1702338803401309000,61.870308837890626,9.766303062438965,0.1374654918909073,0.019067423418164253
1702338803500571400,61.9695712890625,9.772594451904297,0.13408486545085907,0.034371159970760345
1702338803599835400,62.06883544921875,9.784076690673828,0.15184985101222992,0.012660538777709007
1702338803699097900,62.16809790039063,9.781444549560547,0.14675499498844147,0.016060303896665573
1702338803798360600,62.267360595703124,9.784451484680176,0.14187082648277283,0.02836650051176548
1702338803897624600,62.36662451171875,9.788330078125,0.1374654918909073,0.02473689243197441
1702338803996887000,62.46588696289062,9.800836563110352,0.1566382497549057,0.03350924700498581
1702338804096151000,62.565151123046874,9.804006576538086,0.14696568250656128,0.04073015972971916
1702338804195415000,62.6644150390625,9.803413391113281,0.14922580122947693,0.027638664469122887
1702338804294677800,62.763677734375,9.798127174377441,0.1387391984462738,0.013110647909343243
1702338804393941800,62.862941650390624,9.800406455993652,0.14114297926425934,0.018397044390439987
1702338804493204200,62.96220434570313,9.804255485534668,0.15831419825553894,0.0303297471255064
1702338804592466700,63.061466796875,9.790828704833984,0.13695791363716125,0.0222756527364254
1702338804691730700,63.160730712890626,9.787822723388672,0.14096102118492126,0.03438073769211769
1702338804790993200,63.2599931640625,9.782362937927246,0.13474567234516144,0.02950614131987095
1702338804890257400,63.35925732421875,9.77071762084961,0.14349886775016785,0.03151727095246315
1702338804989520000,63.45851977539063,9.757415771484375,0.14075033366680145,0.02526361681520939
1702338805088782300,63.5577822265625,9.749773025512695,0.13397952914237976,0.024851813912391663
1702338805188046300,63.65704638671875,9.717930793762207,0.13961069285869598,0.032091882079839706
1702338805287308800,63.75630883789062,9.718926429748535,0.1405492126941681,0.02738966792821884
1702338805386573000,63.855572998046874,9.713391304016113,0.14175589382648468,0.030032865703105927
1702338805485835500,63.95483544921875,9.71299934387207,0.12494859844446182,0.027025749906897545
1702338805585099500,64.054099609375,9.703757286071777,0.13488933444023132,0.035319264978170395
1702338805684362000,64.15336206054687,9.706189155578613,0.13860511779785156,0.011741165071725845
1702338805783626000,64.2526259765625,9.696085929870605,0.1335485726594925,0.012708422727882862
1702338805882888700,64.351888671875,9.696813583374023,0.1367184966802597,0.026269180700182915
1702338805982152700,64.45115258789062,9.696660041809082,0.1363449990749359,0.017410634085536003
1702338806081415200,64.55041528320312,9.678933143615723,0.13965857028961182,0.02471773885190487
1702338806180677600,64.649677734375,9.678847312927246,0.13437217473983765,0.026719290763139725
1702338806279941600,64.74894165039062,9.679728507995605,0.14732958376407623,0.04158249497413635
1702338806379204000,64.8482041015625,9.688490867614746,0.1347169280052185,0.034802116453647614
1702338806478468400,64.94746826171875,9.68458366394043,0.1297178566455841,0.03189076483249664
1702338806577730800,65.04673071289062,9.691622734069824,0.13357730209827423,0.018119318410754204
1702338806676994800,65.14599487304687,9.693001747131348,0.13871046900749207,0.0246411245316267
1702338806776257300,65.24525732421876,9.693462371826172,0.1484500914812088,0.027332207188010216
1702338806875521300,65.34452124023437,9.694161415100098,0.13685256242752075,0.029161376878619194
1702338806974784000,65.44378393554688,9.698346138000488,0.14557704329490662,0.022620419040322304
1702338807074048000,65.54304809570313,9.698307991027832,0.1419474333524704,0.020197484642267227
1702338807173310500,65.642310546875,9.70028018951416,0.1429721564054489,0.0326952189207077
1702338807272573000,65.74157299804688,9.711447715759277,0.133443221449852,0.025905262678861618
1702338807371837000,65.8408369140625,9.695195198059082,0.1301966905593872,0.00629196222871542
1702338807471099600,65.940099609375,9.690080642700195,0.14261780679225922,0.008159439079463482
1702338807570363600,66.03936376953125,9.708239555358887,0.14612291753292084,0.03319321200251579
1702338807669626000,66.13862622070313,9.706428527832031,0.1447821706533432,0.04277002066373825
1702338807768890000,66.23789013671875,9.683378219604492,0.14468640089035034,0.02426762692630291
1702338807868154000,66.33715405273438,9.7340669631958,0.13631626963615417,0.026173412799835205
1702338807967416800,66.43641674804688,9.718419075012207,0.14316368103027344,0.031574733555316925
1702338808066679300,66.53567919921875,9.738712310791016,0.14507904648780823,0.026001030579209328
1702338808165943300,66.634943359375,9.747743606567383,0.14241668581962585,0.016414646059274673
1702338808265205800,66.73420581054687,9.7796630859375,0.1391318440437317,0.027897236868739128
1702338808364469800,66.8334697265625,9.771014213562012,0.1458451896905899,0.019958065822720528
1702338808463732200,66.93273217773438,9.783502578735352,0.15060485899448395,0.02149035409092903
1702338808562996500,67.03199658203125,9.78418254852295,0.13323253393173218,0.0306840892881155
1702338808662259000,67.13125903320312,9.782172203063965,0.13074256479740143,0.014068328775465488
1702338808761521400,67.230521484375,9.790360450744629,0.15823757648468018,0.0266618300229311
1702338808860785400,67.32978540039062,9.804351806640625,0.13089579343795776,0.02637452445924282
1702338808960047900,67.4290478515625,9.79356861114502,0.1476360410451889,0.0219213105738163
1702338809059312000,67.52831201171875,9.790810585021973,0.1456345021724701,0.02995625138282776
1702338809158574600,67.62757470703124,9.808115005493164,0.14137281477451324,0.02873999811708927
1702338809257838600,67.72683862304687,9.799199104309082,0.14152604341506958,0.021049821749329567
1702338809357101000,67.82610107421876,9.821991920471191,0.14048217236995697,0.03286759927868843
1702338809456365000,67.92536499023437,9.793137550354004,0.13701538741588593,0.03296336904168129
1702338809555627800,68.02462768554688,9.80384349822998,0.14729128777980804,0.03132573515176773
1702338809654891800,68.12389184570313,9.791643142700195,0.1444086730480194,0.020159177482128143
1702338809754154200,68.223154296875,9.810796737670898,0.14757859706878662,0.01988145150244236
1702338809853418200,68.32241821289062,9.781587600708008,0.1323418915271759,0.03521391749382019
1702338809952680700,68.4216806640625,9.772480010986328,0.14500242471694946,0.017477672547101974
1702338810051945000,68.52094506835938,9.754331588745117,0.12728534638881683,0.02815581113100052
1702338810151206000,68.62020581054688,9.752771377563477,0.14392025768756866,0.012334927916526794
1702338810250470000,68.71946997070313,9.733903884887695,0.12868355214595795,0.021605275571346283
1702338810349734000,68.81873388671875,9.714052200317383,0.14353717863559723,0.015562310814857483
1702338810448996400,68.91799633789063,9.721321105957031,0.1412387490272522,0.03284844756126404
1702338810548260400,69.01726025390624,9.706514358520508,0.13676637411117554,0.00684741698205471
1702338810647523000,69.11652319335937,9.700262069702148,0.1349467784166336,0.03670790046453476
1702338810746785500,69.21578564453125,9.701419830322266,0.1359906643629074,0.02104024589061737
1702338810846049500,69.31504956054688,9.696755409240723,0.14187082648277283,0.03438073769211769
1702338810945313500,69.4143134765625,9.703507423400879,0.14387238025665283,0.020389020442962646
1702338811044576000,69.51357592773438,9.69702434539795,0.1250922530889511,0.032216377556324005
1702338811143838500,69.61283837890625,9.6914701461792,0.11829271912574768,0.012737153097987175
1702338811243102700,69.71210278320312,9.70224380493164,0.12566685676574707,0.02689167484641075
1702338811342365200,69.811365234375,9.713400840759277,0.13336661458015442,0.029965827241539955
1702338811441629200,69.91062915039062,9.704255104064941,0.12421118468046188,0.015868768095970154
1702338811540891600,70.0098916015625,9.693998336791992,0.13928507268428802,0.012871228158473969
1702338811640155600,70.10915576171875,9.69124984741211,0.13626839220523834,0.022668302059173584
1702338811739418400,70.20841845703124,9.69548225402832,0.13460202515125275,0.024957159534096718
1702338811838682400,70.30768237304687,9.691144943237305,0.13636414706707,0.018071433529257774
1702338811937944800,70.40694482421875,9.688223838806152,0.13183431327342987,0.023779211565852165
1702338812037208800,70.50620874023437,9.705768585205078,0.1419474333524704,0.027495011687278748
1702338812136471300,70.60547119140625,9.693586349487305,0.1332804262638092,0.034514810889959335
1702338812235734000,70.70473413085938,9.687735557556152,0.12170206755399704,0.03383485972881317
1702338812334998000,70.803998046875,9.706783294677734,0.1425124704837799,0.03410300984978676
1702338812434260500,70.90326049804688,9.694141387939453,0.1435084491968155,0.020503941923379898
1702338812533524500,71.0025244140625,9.699371337890625,0.13533943891525269,0.027265168726444244
1702338812632787000,71.10178686523437,9.69019603729248,0.13953407108783722,0.029103916138410568
1702338812732049400,71.20104931640626,9.714770317077637,0.1431349515914917,0.02400905452668667
1702338812831313700,71.30031372070313,9.713112831115723,0.1353202760219574,0.024957159534096718
1702338812930576100,71.399576171875,9.708680152893066,0.13376884162425995,0.03194822743535042
1702338813029840100,71.49884008789063,9.738645553588867,0.1460750252008438,0.038355108350515366
1702338813129102600,71.5981025390625,9.7429838180542,0.13503298163414001,0.0261829886585474
1702338813228366600,71.69736669921875,9.753403663635254,0.13839444518089294,0.010122684761881828
1702338813327629300,71.79662939453125,9.767423629760742,0.14231134951114655,0.017056293785572052
1702338813426893300,71.89589331054688,9.776090621948242,0.13651737570762634,0.019852720201015472
1702338813526155800,71.99515576171875,9.792237281799316,0.14252203702926636,0.027590779587626457
1702338813625419800,72.09441967773438,9.789325714111328,0.14451400935649872,0.014633361250162125
1702338813724682200,72.19368212890625,9.781645774841309,0.1435084491968155,0.023587675765156746
1702338813823946500,72.29294653320312,9.79197883605957,0.15315230190753937,0.016836026683449745
1702338813923209000,72.392208984375,9.797475814819336,0.15168704092502594,0.02331952564418316
1702338814022471400,72.49147143554687,9.802665710449219,0.1534300297498703,0.032283417880535126
1702338814121735400,72.5907353515625,9.801573753356934,0.15410040318965912,0.02343444712460041
1702338814220998000,72.68999780273438,9.799332618713379,0.1477797031402588,-0.000028730421036016196
1702338814320262100,72.78926220703126,9.793922424316406,0.13763786852359772,0.02881661243736744
1702338814419524600,72.88852465820312,9.806075096130371,0.142780601978302,0.02116474322974682
1702338814518788600,72.98778857421875,9.804102897644043,0.14799997210502625,0.033308133482933044
1702338814618051000,73.08705102539062,9.803365707397461,0.14452359080314636,0.032283417880535126
1702338814717315000,73.18631518554687,9.799362182617188,0.13826994597911835,0.02346317656338215
1702338814816577500,73.28557763671876,9.768304824829102,0.15033671259880066,0.014719552360475063
1702338814915841800,73.384841796875,9.774903297424316,0.15575718879699707,0.023539790883660316
1702338815015104300,73.48410424804688,9.749428749084473,0.13730266690254211,0.024085668846964836
1702338815114368300,73.5833681640625,9.744209289550781,0.14590264856815338,0.03334644436836243
1702338815213630700,73.68263061523437,9.728675842285156,0.13660357892513275,0.024870967492461205
1702338815312893200,73.78189306640625,9.739008903503418,0.13881580531597137,0.030013712123036385
1702338815412157400,73.88115747070313,9.711274147033691,0.14509820938110352,0.04043327644467354
1702338815511420000,73.980419921875,9.719367027282715,0.13393163681030273,0.03665044158697128
1702338815610684000,74.07968383789063,9.72520923614502,0.14824895560741425,0.025321077555418015
1702338815709946400,74.1789462890625,9.695664405822754,0.14298172295093536,0.02602018415927887
1702338815809210400,74.27821044921875,9.701860427856445,0.1402619183063507,0.03440946713089943
1702338815908473000,74.37747314453125,9.713774681091309,0.13935211300849915,0.028988994657993317
1702338816007737000,74.47673706054688,9.702654838562012,0.13894988596439362,0.019728220999240875
1702338816106999600,74.57599951171875,9.702387809753418,0.127486452460289,0.027437550947070122
1702338816206263600,74.675263671875,9.706514358520508,0.14737749099731445,0.03843172639608383
1702338816305526000,74.77452612304687,9.702751159667969,0.13056060671806335,0.025704149156808853
1702338816404788500,74.87378857421875,9.714444160461426,0.1346977800130844,0.019009962677955627
1702338816504052700,74.973052734375,9.686518669128418,0.12993811070919037,0.02466985583305359
1702338816603315200,75.07231518554687,9.710039138793945,0.1321312040090561,0.02851015515625477
1702338816702579200,75.1715791015625,9.714483261108398,0.14441823959350586,0.019345149397850037
1702338816801841700,75.27084155273438,9.693031311035156,0.14104720950126648,0.026001030579209328
1702338816901105700,75.37010571289062,9.699907302856445,0.1414877474308014,0.033537980169057846
1702338817000368400,75.46936840820312,9.705548286437988,0.12795571982860565,0.020245369523763657
1702338817099632400,75.56863232421875,9.71800708770752,0.1264425814151764,0.02239057421684265
1702338817198894800,75.66789477539062,9.68802261352539,0.13049358129501343,0.019795259460806847
1702338817298158800,75.76715893554687,9.711658477783203,0.1501164436340332,0.022620419040322304
1702338817397421300,75.86642138671876,9.706323623657227,0.13451582193374634,0.026815060526132584
1702338817496685600,75.965685546875,9.705385208129883,0.12911450862884521,0.03208230063319206
1702338817595948000,76.06494799804688,9.704264640808105,0.12682566046714783,0.026010606437921524
1702338817695210500,76.16421044921876,9.709273338317871,0.13435302674770355,0.02381751872599125
1702338817794474500,76.263474609375,9.712099075317383,0.12941139936447144,0.013158531859517097
1702338817893737000,76.36273706054688,9.726147651672363,0.12614570558071136,0.02331952564418316
1702338817993001000,76.4620009765625,9.731002807617188,0.14173674583435059,0.02483266033232212
1702338818092263700,76.561263671875,9.74636459350586,0.13849978148937225,0.027504589408636093
1702338818191527700,76.66052758789063,9.746220588684082,0.14729128777980804,0.024047361686825752
1702338818290790100,76.7597900390625,9.763421058654785,0.1471572071313858,0.012038045562803745
1702338818390054100,76.85905419921875,9.772671699523926,0.13623006641864777,0.024095244705677032
1702338818489316600,76.95831665039063,9.77312183380127,0.142991304397583,0.023166295140981674
1702338818588580900,77.05758081054688,9.796010971069336,0.14106635749340057,0.03829764947295189
1702338818687843300,77.15684326171875,9.787735939025879,0.14327861368656158,0.010869675315916538
1702338818787105800,77.25610571289063,9.79312801361084,0.13580870628356934,0.02243845723569393
1702338818886369800,77.35536987304687,9.790685653686523,0.14044387638568878,0.02338656224310398
1702338818985632300,77.45463232421875,9.803528785705566,0.13250470161437988,0.033777397125959396
1702338819084896500,77.553896484375,9.791154861450195,0.1366131454706192,0.015389928594231606
1702338819184159000,77.65315893554687,9.813056945800781,0.13595235347747803,0.03651636466383934
1702338819283421400,77.75242138671875,9.804112434387207,0.14941734075546265,0.03313574939966202
1702338819382685400,77.851685546875,9.798270225524902,0.14542381465435028,0.02521573193371296
1702338819481949400,77.95094946289062,9.8148193359375,0.12888465821743011,0.03922659903764725
1702338819581212000,78.0502119140625,9.812827110290527,0.14143986999988556,0.009184157475829124
1702338819680474600,78.149474609375,9.810403823852539,0.14151647686958313,0.015073893591761589
1702338819779738600,78.24873852539062,9.791518211364746,0.13559800386428833,0.011463438160717487
1702338819879001000,78.3480009765625,9.79655647277832,0.14298172295093536,0.03179499879479408
1702338819978265000,78.44726513671876,9.773399353027344,0.14531846344470978,0.019249381497502327
1702338820077527600,78.54652758789062,9.778982162475586,0.13800178468227386,0.013292607851326466
1702338820176791800,78.64579174804688,9.769233703613281,0.1497429460287094,0.01623268611729145
1702338820276054300,78.74505419921876,9.754523277282715,0.12968911230564117,0.023300372064113617
1702338820375316700,78.84431665039062,9.74325180053711,0.14277103543281555,0.019565416499972343
1702338820474580700,78.94358081054688,9.735025405883789,0.16050727665424347,0.011626243591308594
1702338820573843200,79.04284326171874,9.725591659545898,0.12876015901565552,0.02848142385482788
1702338820673107500,79.142107421875,9.716217041015625,0.1450503021478653,0.03680367022752762
1702338820772370000,79.24136987304688,9.696813583374023,0.1652669459581375,0.02720770798623562
1702338820871634000,79.34063403320313,9.712845802307129,0.1292773187160492,0.025052927434444427
1702338820970896400,79.439896484375,9.704504013061523,0.14414051175117493,0.04258805885910988
1702338821070160400,79.53916040039063,9.696478843688965,0.14041514694690704,0.015964535996317863
1702338821169422800,79.6384228515625,9.702215194702148,0.12934434413909912,0.02587653137743473
1702338821268687000,79.73768701171875,9.693193435668945,0.1560540646314621,0.0314023494720459
1702338821367949600,79.83694946289063,9.702329635620117,0.14273272454738617,0.033308133482933044
1702338821467213600,79.93621362304688,9.693011283874512,0.1298423409461975,0.02329079434275627
1702338821566476000,80.03547607421875,9.711409568786621,0.14479175209999084,0.02592441625893116
1702338821665738500,80.13473852539063,9.692072868347168,0.14408305287361145,0.03066493570804596
1702338821765002800,80.23400268554687,9.719281196594238,0.1349276304244995,0.03132573515176773
1702338821864265200,80.33326513671875,9.711121559143066,0.13132674992084503,0.02917095459997654
1702338821963529200,80.432529296875,9.720985412597656,0.1348605901002884,0.03056916780769825
1702338822062791700,80.53179174804687,9.69548225402832,0.14302003383636475,0.029822176322340965
1702338822162055700,80.6310556640625,9.713458061218262,0.14841178059577942,0.02452620305120945
1702338822261318400,80.730318359375,9.683378219604492,0.14580687880516052,0.020149601623415947
1702338822360582400,80.82958251953124,9.70370864868164,0.14460019767284393,0.023702597245573997
1702338822459844900,80.92884497070312,9.696133613586426,0.13637372851371765,0.024985888972878456
1702338822559108900,81.02810888671875,9.70284652709961,0.13894988596439362,0.03312617540359497
1702338822658371300,81.12737133789062,9.721234321594238,0.1358182728290558,0.03279098495841026
1702338822757635600,81.22663549804687,9.713266372680664,0.13351984322071075,0.012066775932908058
1702338822856898000,81.32589794921876,9.723495483398438,0.13301226496696472,0.01914403773844242
1702338822956160500,81.42516040039062,9.709580421447754,0.13036906719207764,0.028682537376880646
1702338823055424500,81.52442456054688,9.735092163085938,0.13956280052661896,0.01968991383910179
1702338823154687000,81.62368701171874,9.745080947875977,0.13228443264961243,0.020254945382475853
1702338823253951000,81.72295092773437,9.745616912841797,0.15356409549713135,0.007977480068802834
1702338823353213700,81.82221362304688,9.751056671142578,0.14622825384140015,0.023807941004633904
1702338823452477700,81.92147778320313,9.788396835327148,0.14380532503128052,0.03447650372982025
1702338823551740200,82.020740234375,9.775429725646973,0.13440090417861938,0.02810792811214924
1702338823651004200,82.12000415039063,9.784748077392578,0.13513831794261932,0.021174320951104164
1702338823750266600,82.2192666015625,9.786471366882324,0.13630668818950653,0.019891027361154556
1702338823849531000,82.31853076171875,9.803422927856445,0.13468821346759796,0.01188481692224741
1702338823948793300,82.41779345703125,9.801593780517578,0.13890200853347778,0.026317063719034195
1702338824048055800,82.51705590820312,9.803183555603027,0.14617080986499786,0.02933375909924507
1702338824147319800,82.61631982421875,9.801324844360352,0.13666102290153503,0.02284068427979946
1702338824246582300,82.71558227539063,9.790484428405762,0.1412387490272522,0.01767878606915474
1702338824345846300,82.81484619140625,9.816887855529785,0.1318822056055069,0.03642059862613678
1702338824445109000,82.91410888671875,9.806084632873535,0.14727213978767395,0.01734359748661518
1702338824544373000,83.013373046875,9.813028335571289,0.14374786615371704,0.023329101502895355
1702338824643635500,83.11263549804687,9.806209564208984,0.13526281714439392,0.021978771314024925
1702338824742899500,83.2118994140625,9.79196834564209,0.1442171335220337,0.005813121795654297
1702338824842162000,83.31116186523437,9.788904190063477,0.15120820701122284,0.020417751744389534
1702338824941426200,83.41042626953126,9.767040252685547,0.14645810425281525,0.02611595205962658
1702338825040688600,83.50968872070312,9.769492149353027,0.14216768741607666,0.01649126037955284
1702338825139952600,83.60895263671875,9.765077590942383,0.14335522055625916,0.019709067419171333
1702338825239215000,83.70821508789062,9.746431350708008,0.13378798961639404,0.027638664469122887
1702338825338479000,83.80747900390625,9.746095657348633,0.13515746593475342,0.021212628111243248
1702338825437741800,83.90674194335938,9.739287376403809,0.13297396898269653,0.015169661492109299
1702338825537004300,84.00600439453125,9.728752136230469,0.1446768194437027,0.025493459776043892
1702338825636268300,84.10526831054688,9.734939575195312,0.13751336932182312,0.020762518048286438
1702338825735530800,84.20453076171874,9.709397315979004,0.13337619602680206,0.03444777429103851
1702338825834794800,84.30379467773437,9.713228225708008,0.13910311460494995,0.028232425451278687
1702338825934057200,84.40305712890626,9.709924697875977,0.1507197916507721,0.04142926633358002
1702338826033321500,84.50232153320313,9.70894718170166,0.11219228804111481,0.01893334835767746
1702338826132584000,84.601583984375,9.71004867553711,0.14218685030937195,0.02033155970275402
1702338826231848000,84.70084790039063,9.687907218933105,0.13516704738140106,0.026364948600530624
1702338826331110400,84.8001103515625,9.706677436828613,0.13894030451774597,0.0270161721855402
1702338826430374400,84.89937451171875,9.689813613891602,0.14226345717906952,0.01458547729998827
1702338826529637000,84.99863720703125,9.711734771728516,0.13961069285869598,0.028787881135940552
1702338826628901000,85.09790112304688,9.679450988769531,0.13938084244728088,0.02391328662633896
1702338826728163600,85.19716357421875,9.699801445007324,0.13108733296394348,0.0290273018181324
1702338826827426000,85.29642602539063,9.685992240905762,0.13876792788505554,0.028404807671904564
1702338826926690000,85.39568994140625,9.691804885864258,0.12737153470516205,0.026910828426480293
1702338827025952800,85.49495288085937,9.716360092163086,0.13381673395633698,0.02331952564418316
1702338827125216800,85.594216796875,9.706514358520508,0.13061806559562683,0.03789542242884636
1702338827224479200,85.69347924804687,9.71543025970459,0.14237838983535767,0.03288675472140312
1702338827323743200,85.7927431640625,9.712587356567383,0.13261961936950684,0.015073893591761589
1702338827423005700,85.89200561523438,9.697139739990234,0.14227303862571716,0.02886449545621872
1702338827522268200,85.99126806640625,9.722882270812988,0.13516704738140106,0.021250935271382332
1702338827621532400,86.09053247070312,9.699361801147461,0.1278408020734787,0.027006596326828003
1702338827720796400,86.18979638671875,9.715316772460938,0.13435302674770355,0.027284322306513786
1702338827820059000,86.28905883789062,9.694573402404785,0.14073117077350616,0.039513904601335526
1702338827919321300,86.3883212890625,9.704561233520508,0.14484919607639313,0.03449565917253494
1702338828018585300,86.48758544921876,9.728081703186035,0.1352149397134781,0.02241930365562439
1702338828117848000,86.58684814453125,9.738061904907227,0.13258130848407745,0.015600617974996567
1702338828217112000,86.68611206054688,9.735255241394043,0.14056837558746338,0.016452953219413757
1702338828316374500,86.78537451171874,9.740666389465332,0.13128843903541565,0.0360279455780983
1702338828415637000,86.88463696289062,9.770785331726074,0.13479354977607727,0.0072783734649419785
1702338828514901000,86.98390087890625,9.752110481262207,0.14625698328018188,0.02689167484641075
1702338828614165200,87.08316528320313,9.77672290802002,0.1481149047613144,0.023702597245573997
1702338828713427700,87.182427734375,9.78477668762207,0.13524366915225983,0.028950687497854233
1702338828812691700,87.28169165039063,9.773275375366211,0.13735057413578033,0.02402820810675621
1702338828911954200,87.3809541015625,9.792552947998047,0.14337436854839325,0.012909535318613052
1702338829011216600,87.48021655273438,9.783464431762695,0.13857640326023102,0.018454505130648613
1702338829110481000,87.57948095703125,9.801593780517578,0.13323253393173218,0.019373880699276924
1702338829209743400,87.67874340820312,9.793118476867676,0.13914142549037933,0.019057845696806908
1702338829309007400,87.77800732421875,9.811208724975586,0.1581992655992508,0.02452620305120945
1702338829408269800,87.87726977539063,9.784632682800293,0.140530064702034,0.020005948841571808
1702338829507532300,87.9765322265625,9.798442840576172,0.14567281305789948,0.031000124290585518
1702338829606796300,88.07579638671875,9.799420356750488,0.14995364844799042,0.024037783965468407
1702338829706059000,88.17505908203125,9.800990104675293,0.13418063521385193,0.020762518048286438
1702338829805323000,88.27432299804687,9.79841423034668,0.1517636626958847,0.025397691875696182
1702338829904587000,88.3735869140625,9.800119400024414,0.14743493497371674,0.025129541754722595
1702338830003849500,88.47284936523438,9.797648429870605,0.1441979855298996,0.026805482804775238
1702338830103112000,88.57211181640625,9.772441864013672,0.14483004808425903,0.032379183918237686
1702338830202376200,88.67137622070312,9.765326499938965,0.135195791721344,0.026345795020461082
1702338830301638700,88.770638671875,9.749466896057129,0.15423446893692017,0.011204863898456097
1702338830400902700,88.86990258789062,9.746814727783203,0.14447571337223053,0.019804837182164192
1702338830500165000,88.9691650390625,9.740885734558105,0.13466905057430267,0.0181288942694664
1702338830599429000,89.06842919921876,9.726358413696289,0.1382412165403366,0.024660278111696243
1702338830698691600,89.16769165039062,9.70934009552002,0.13371138274669647,0.01851196587085724
1702338830797954300,89.26695434570313,9.721272468566895,0.13802093267440796,0.023855825886130333
1702338830897218300,89.36621826171876,9.709598541259766,0.13714943826198578,0.026977865025401115
1702338830996480800,89.46548071289062,9.731654167175293,0.14599841833114624,0.015763424336910248
1702338831095744800,89.56474487304688,9.686911582946777,0.1427614539861679,0.0335283987224102
1702338831195007200,89.66400732421874,9.70317268371582,0.14284765720367432,0.030157363042235374
1702338831294271500,89.763271484375,9.700108528137207,0.13266751170158386,0.02846227027475834
1702338831393534000,89.86253393554688,9.712854385375977,0.1438436359167099,0.0054779332131147385
1702338831492798000,89.9617978515625,9.697426795959473,0.14177505671977997,0.023262064903974533
1702338831592060400,90.06106030273438,9.696076393127441,0.1435946375131607,0.02106897532939911
1702338831691324400,90.16032446289063,9.704608917236328,0.13998419046401978,0.02791639044880867
1702338831790587100,90.25958715820312,9.694984436035156,0.13808798789978027,0.02343444712460041
1702338831889849600,90.358849609375,9.683416366577148,0.13314634561538696,0.01843535155057907
1702338831989113600,90.45811352539063,9.696574211120605,0.1324472278356552,0.027897236868739128
1702338832088376000,90.5573759765625,9.692848205566406,0.136115163564682,0.034419044852256775
1702338832187640000,90.65664013671875,9.712692260742188,0.1317385584115982,0.024746470153331757
1702338832286902500,90.75590258789063,9.692359924316406,0.1331559121608734,0.020800825208425522
1702338832386166800,90.85516674804687,9.693634033203125,0.13885413110256195,0.029850905761122704
1702338832485429200,90.95442919921875,9.706524848937988,0.13153745234012604,0.008159439079463482
1702338832584693200,91.053693359375,9.708382606506348,0.15897499024868011,0.007441178895533085
1702338832683955700,91.15295581054687,9.708986282348633,0.1356746256351471,0.023511061444878578
1702338832783219700,91.2522197265625,9.704848289489746,0.1273619532585144,0.025838224217295647
1702338832882482400,91.351482421875,9.704370498657227,0.1328398883342743,0.02431551180779934
1702338832981746400,91.45074633789062,9.702856063842773,0.13089579343795776,0.017027562484145164
1702338833081009000,91.5500087890625,9.73872184753418,0.15192647278308868,0.034016817808151245
1702338833180271400,91.64927124023437,9.73289966583252,0.13102029263973236,0.02282153069972992
1702338833279535400,91.74853540039062,9.752809524536133,0.13518621027469635,0.008169015869498253
1702338833378798000,91.84779809570313,9.739124298095703,0.134985089302063,0.020982785150408745
1702338833478062000,91.94706201171876,9.773140907287598,0.12926773726940155,0.026882097125053406
1702338833577324500,92.04632446289062,9.76989459991455,0.1407599002122879,0.02151908539235592
1702338833676588500,92.14558862304688,9.783522605895996,0.14612291753292084,0.032216377556324005
1702338833775851000,92.24485107421874,9.785265922546387,0.1332804262638092,0.021978771314024925
1702338833875115300,92.344115234375,9.793749809265137,0.14506947994232178,0.02108812890946865
1702338833974377700,92.44337768554688,9.801986694335938,0.14592179656028748,0.03047339990735054
1702338834073641700,92.54264184570313,9.787908554077148,0.14579729735851288,0.02552218921482563
1702338834172904200,92.641904296875,9.8106050491333,0.1446576714515686,0.02531149983406067
1702338834272166700,92.74116674804688,9.786730766296387,0.13349109888076782,0.02557007409632206
1702338834371430700,92.8404306640625,9.791337013244629,0.1380688101053238,0.020839132368564606
1702338834470695000,92.93969482421875,9.79868221282959,0.14897680282592773,0.021212628111243248
1702338834569955800,93.03895581054688,9.804983139038086,0.14631445705890656,0.029391219839453697
1702338834669219800,93.1382197265625,9.791815757751465,0.14643895626068115,0.03303040564060211
1702338834768483800,93.23748388671875,9.806564331054688,0.1455100029706955,0.0314023494720459
1702338834867746300,93.33674633789063,9.798452377319336,0.13749422132968903,0.02303222008049488
1702338834967010600,93.43601049804687,9.78842544555664,0.13156618177890778,0.023779211565852165
1702338835066273000,93.53527294921875,9.770536422729492,0.1395723819732666,0.029419951140880585
1702338835165535500,93.63453540039062,9.763018608093262,0.14918750524520874,0.01398213766515255
1702338835264799500,93.73379956054687,9.754830360412598,0.14104720950126648,0.019565416499972343
1702338835364063500,93.8330634765625,9.74156665802002,0.1439489871263504,0.022151153534650803
1702338835463326200,93.932326171875,9.751755714416504,0.13952450454235077,0.034849997609853745
1702338835562588700,94.03158862304687,9.719127655029297,0.1393233835697174,0.013618219643831253
1702338835661852700,94.13085278320312,9.708544731140137,0.14236880838871002,0.024823084473609924
1702338835761115100,94.230115234375,9.71681022644043,0.13155660033226013,0.020111294463276863
1702338835860377600,94.32937768554687,9.711226463317871,0.14456190168857574,0.023022644221782684
1702338835959641600,94.4286416015625,9.69384479522705,0.13770490884780884,0.023511061444878578
1702338836058904300,94.527904296875,9.696727752685547,0.11943235993385315,0.01893334835767746
1702338836158168300,94.62716821289062,9.694209098815918,0.12478578835725784,0.025579649955034256
1702338836257432300,94.72643237304688,9.708727836608887,0.14058752357959747,0.037071820348501205
1702338836356694800,94.82569482421874,9.693280220031738,0.14102806150913239,0.039466023445129395
1702338836455958800,94.92495874023437,9.713055610656738,0.1286739856004715,0.020934900268912315
1702338836555221500,95.02422143554688,9.69374942779541,0.13387417793273926,0.013666103594005108
1702338836654484000,95.12348388671874,9.690704345703125,0.13855724036693573,0.027456704527139664
1702338836753748000,95.222748046875,9.69886302947998,0.14360421895980835,0.03479253873229027
1702338836853012000,95.32201196289063,9.69707202911377,0.12982319295406342,0.0323408767580986
1702338836952274400,95.4212744140625,9.689420700073242,0.12413457036018372,0.030186094343662262
1702338837051537000,95.52053686523438,9.693825721740723,0.14486835896968842,0.028663383796811104
1702338837150799600,95.61979956054688,9.7021484375,0.1303211748600006,0.018521543592214584
1702338837250063600,95.71906372070312,9.702895164489746,0.14068329334259033,0.024631548672914505
1702338837349326000,95.818326171875,9.705987930297852,0.1391318440437317,0.032666489481925964
1702338837448590000,95.91759008789063,9.699993133544922,0.13699620962142944,0.025493459776043892
1702338837547852500,96.0168525390625,9.694716453552246,0.14778926968574524,0.022811954841017723
1702338837647116800,96.11611669921875,9.706649780273438,0.13549266755580902,0.02855803817510605
1702338837746379300,96.21537915039063,9.720104217529297,0.12866440415382385,0.027609933167696
1702338837845643300,96.31464331054687,9.703699111938477,0.13733141124248505,0.03337517008185387
1702338837944905700,96.41390576171875,9.706189155578613,0.13841359317302704,0.024487894028425217
1702338838044169700,96.51316967773438,9.716954231262207,0.15564225614070892,0.020647596567869186
1702338838143432400,96.61243237304687,9.723724365234375,0.12893255054950714,0.03666001558303833
1702338838242696400,96.71169653320312,9.75121021270752,0.14909173548221588,0.018167201429605484
1702338838341959000,96.810958984375,9.749008178710938,0.1346116065979004,0.03256114199757576
1702338838441221400,96.91022143554687,9.75735855102539,0.14119085669517517,0.03463931009173393
1702338838540485400,97.0094853515625,9.764827728271484,0.15219460427761078,0.028203696012496948
1702338838639747800,97.10874780273437,9.76362133026123,0.13899777829647064,0.03670790046453476
1702338838739012000,97.20801220703125,9.782889366149902,0.13178643584251404,0.015667656436562538
1702338838838274600,97.30727465820313,9.782899856567383,0.14762647449970245,0.01917276717722416
1702338838937538600,97.40653857421874,9.763755798339844,0.14734876155853271,0.01739148050546646
1702338839036801000,97.50580102539062,9.788664817810059,0.14257949590682983,0.023587675765156746
1702338839136065000,97.60506494140625,9.775323867797852,0.14618037641048431,0.017362751066684723
1702338839235327700,97.70432763671874,9.792572021484375,0.14420755207538605,0.026997018605470657
1702338839334591700,97.803591796875,9.793405532836914,0.12662453949451447,0.01682645082473755
1702338839433854200,97.90285424804688,9.800990104675293,0.1427614539861679,0.030885202810168266
1702338839533116700,98.00211669921875,9.778484344482422,0.13206416368484497,0.021203050389885902
1702338839632380700,98.10138061523438,9.788119316101074,0.13310803472995758,0.017104176804423332
1702338839731643400,98.20064331054688,9.80774211883545,0.1527213454246521,0.021126436069607735
1702338839830907400,98.29990747070312,9.783598899841309,0.14415010809898376,0.02698744274675846
1702338839930169900,98.399169921875,9.792150497436523,0.14009910821914673,0.02312798798084259
1702338840029433900,98.49843383789063,9.766437530517578,0.1388636976480484,0.028309039771556854
1702338840128696300,98.5976962890625,9.761026382446289,0.14341269433498383,0.0303297471255064
1702338840227960600,98.69696069335937,9.75801944732666,0.1455961912870407,0.028146235272288322
1702338840327223000,98.79622314453125,9.741891860961914,0.15043248236179352,0.03637271001935005
1702338840426487000,98.89548706054687,9.743778228759766,0.14645810425281525,0.025981876999139786
1702338840525749500,98.99474951171875,9.740675926208496,0.1503462791442871,0.03740701079368591
1702338840625013500,99.09401342773438,9.714627265930176,0.14302003383636475,0.024612395092844963
1702338840724276000,99.19327587890625,9.72374439239502,0.14277103543281555,0.020867861807346344
1702338840823538700,99.29253857421875,9.705451965332031,0.13918931782245636,0.026910828426480293
1702338840922802700,99.391802734375,9.717327117919922,0.1403002142906189,0.022074539214372635
1702338841022065200,99.49106518554687,9.719836235046387,0.13339534401893616,0.01772666908800602
1702338841121329200,99.5903291015625,9.710068702697754,0.13051272928714752,0.01914403773844242
1702338841220591600,99.68959155273437,9.700864791870117,0.14105679094791412,0.027437550947070122
1702338841319855900,99.78885595703125,9.704608917236328,0.14326903223991394,0.03334644436836243
1702338841419118300,99.88811840820313,9.70153522491455,0.12776418030261993,0.02348233014345169
1702338841518382300,99.98738232421876,9.706687927246094,0.12122321873903275,0.024870967492461205
1702338841617644800,100.08664477539062,9.679536819458008,0.14273272454738617,0.02102109231054783
1702338841716908800,100.18590869140625,9.712079048156738,0.1372164934873581,0.022639572620391846
1702338841816171500,100.28517163085938,9.682879447937012,0.12058157473802567,0.01571553945541382
1702338841915435500,100.384435546875,9.712174415588379,0.14323072135448456,0.02810792811214924
1702338842014698000,100.48369799804688,9.687600135803223,0.1381358653306961,0.031239543110132217
1702338842113960400,100.58296044921875,9.701688766479492,0.1340944468975067,0.03054043836891651
1702338842213224400,100.68222436523438,9.69587516784668,0.13910311460494995,0.01796608977019787
1702338842312487000,100.78148681640624,9.696267127990723,0.13465948402881622,0.024756046012043953
1702338842411751200,100.88075122070312,9.693499565124512,0.14716678857803345,0.0341317392885685
1702338842511015200,100.98001513671875,9.701698303222656,0.14769351482391357,0.030655359849333763
1702338842610277600,101.07927758789063,9.695032119750977,0.1517636626958847,0.02222776785492897
1702338842709540000,101.1785400390625,9.704465866088867,0.13768574595451355,0.03380613029003143
1702338842808804000,101.27780419921875,9.701286315917969,0.1362396478652954,0.012650961987674236
1702338842908066800,101.37706689453125,9.707348823547363,0.14068329334259033,0.03462973237037659
1702338843007330800,101.47633081054687,9.717384338378906,0.13193966448307037,0.03035847656428814
1702338843106593300,101.57559326171875,9.719319343566895,0.14402560889720917,0.02471773885190487
1702338843205857300,101.67485717773438,9.752340316772461,0.13179601728916168,0.013608642853796482
1702338843305119700,101.77411962890625,9.742399215698242,0.13087664544582367,0.019843144342303276
1702338843404382500,101.87338256835938,9.76223373413086,0.14010868966579437,0.027878083288669586
1702338843503646500,101.972646484375,9.759005546569824,0.13988840579986572,0.04043327644467354
1702338843602909000,102.07190893554687,9.780237197875977,0.13738887012004852,0.02528277039527893
1702338843702171400,102.17117138671875,9.786117553710938,0.14913003146648407,0.017803283408284187
1702338843801435400,102.27043530273437,9.790934562683105,0.14128664135932922,0.026977865025401115
1702338843900699600,102.36969970703124,9.7944974899292,0.13414233922958374,0.04666777700185776
1702338843999962000,102.46896215820313,9.795369148254395,0.149407759308815,0.029237991198897362
1702338844099226000,102.56822607421876,9.785734176635742,0.1486990749835968,0.019900605082511902
1702338844198488600,102.66748852539062,9.800137519836426,0.1251497119665146,0.026202142238616943
1702338844297752600,102.76675268554688,9.796929359436035,0.1455961912870407,0.037445317953825
1702338844397015000,102.86601513671874,9.79885482788086,0.14602714776992798,0.025981876999139786
1702338844496277800,102.96527783203125,9.812750816345215,0.14200489223003387,0.03449565917253494
1702338844595541800,103.06454174804688,9.804265975952148,0.15159127116203308,0.026096798479557037
1702338844694804200,103.16380419921875,9.82027816772461,0.13906480371952057,0.02798342891037464
1702338844794068200,103.26306811523438,9.804831504821777,0.14494498074054718,0.02597229927778244
1702338844893330700,103.36233056640626,9.794018745422363,0.1276109516620636,0.044800300151109695
1702338844992595000,103.46159497070313,9.796661376953125,0.13130760192871094,0.011109095998108387
1702338845091859000,103.56085888671875,9.7930326461792,0.14592179656028748,0.00684741698205471
1702338845191120000,103.66011987304688,9.780016899108887,0.14500242471694946,0.024842238053679466
1702338845290384000,103.7593837890625,9.759705543518066,0.13758040964603424,0.024066515266895294
1702338845389646300,103.85864624023438,9.754714965820312,0.13752295076847076,0.030157363042235374
1702338845488910300,103.95791040039063,9.762874603271484,0.1377815306186676,0.030645782127976418
1702338845588173000,104.05717309570312,9.738712310791016,0.14589308202266693,0.03139277175068855
1702338845687437000,104.15643701171875,9.734718322753906,0.1415930986404419,0.006110002286732197
1702338845786699500,104.25569946289062,9.746220588684082,0.13718776404857635,0.026805482804775238
1702338845885963500,104.35496362304687,9.753690719604492,0.14799997210502625,0.04237736761569977
1702338845985226000,104.45422607421875,9.755385398864746,0.1384040117263794,0.011731588281691074
1702338846084490200,104.553490234375,9.763391494750977,0.13309846818447113,0.024277204647660255
1702338846183752700,104.65275268554687,9.765125274658203,0.13522452116012573,0.017927782610058784
1702338846283015200,104.75201513671875,9.756141662597656,0.14700397849082947,0.006540958769619465
1702338846382279200,104.85127905273437,9.754322052001953,0.13910311460494995,0.03360501304268837
1702338846481543200,104.95054321289062,9.74575138092041,0.1431349515914917,0.018521543592214584
1702338846580806000,105.04980590820313,9.756295204162598,0.15089216828346252,0.01706586964428425
1702338846680070000,105.14906982421876,9.747493743896484,0.1402619183063507,0.015725117176771164
1702338846779332400,105.24833227539062,9.773781776428223,0.15135185420513153,0.02907518669962883
1702338846878594800,105.3475947265625,9.757559776306152,0.14330734312534332,0.028902802616357803
1702338846977858800,105.44685888671874,9.787304878234863,0.13298353552818298,0.021337125450372696
1702338847077121300,105.54612133789063,9.77312183380127,0.13920846581459045,0.01578257791697979
1702338847176385500,105.64538549804688,9.778159141540527,0.14983871579170227,0.032781410962343216
1702338847275648000,105.74464794921874,9.768783569335938,0.13266751170158386,0.021174320951104164
1702338847374912000,105.843912109375,9.770977020263672,0.1399075835943222,0.016510413959622383
1702338847474174500,105.94317456054688,9.756266593933105,0.1420336216688156,0.034936193376779556
1702338847573437000,106.04243701171875,9.754226684570312,0.15508680045604706,0.01368525717407465
1702338847672701200,106.141701171875,9.735772132873535,0.13272495567798615,0.043258439749479294
1702338847771963600,106.24096362304688,9.737936973571777,0.13773363828659058,0.009959879331290722
1702338847871227600,106.3402275390625,9.732419967651367,0.13796348869800568,0.02092532441020012
1702338847970490000,106.43948999023438,9.740243911743164,0.1402619183063507,0.030655359849333763
1702338848069754000,106.53875415039063,9.731912612915039,0.13047441840171814,0.03447650372982025
1702338848169016800,106.63801684570312,9.722297668457031,0.13952450454235077,0.030770281329751015
1702338848268280800,106.73728076171875,9.72775650024414,0.13691960275173187,0.028040889650583267
1702338848367543300,106.83654321289063,9.743903160095215,0.1533438265323639,0.020819978788495064
1702338848466807300,106.93580737304687,9.763267517089844,0.13445837795734406,0.021643582731485367
1702338848566069800,107.03506982421875,9.76014518737793,0.12382811307907104,0.0386328399181366
1702338848665332200,107.13433227539062,9.775602340698242,0.13903608918190002,0.016223110258579254
1702338848764596500,107.23359643554687,9.785706520080566,0.14562492072582245,0.027303475886583328
1702338848863859000,107.33285888671875,9.789162635803223,0.15696386992931366,0.017755400389432907
1702338848963123000,107.432123046875,9.798192977905273,0.14012783765792847,0.027648240327835083
1702338849062385400,107.53138549804687,9.796623229980469,0.14475342631340027,0.02765781804919243
1702338849161649400,107.6306494140625,9.79143238067627,0.15125608444213867,0.023376986384391785
1702338849260912000,107.729912109375,9.789249420166016,0.14118129014968872,0.029735984280705452
1702338849360176000,107.82917602539062,9.785743713378906,0.14406390488147736,0.015935806557536125
1702338849459438600,107.9284384765625,9.782554626464844,0.12829090654850006,0.021643582731485367
1702338849558702600,108.02770263671874,9.81589126586914,0.13887327909469604,0.027044903486967087
1702338849657965000,108.12696508789062,9.76744270324707,0.1603061705827713,0.016998833045363426
1702338849757229300,108.22622924804688,9.784470558166504,0.1686858832836151,0.015648502856492996
1702338849856491800,108.32549169921874,9.779681205749512,0.16252797842025757,0.03116292878985405
1702338849955754200,108.42475415039063,9.784680366516113,0.14975252747535706,0.017266983166337013
1702338850055018200,108.52401831054688,9.770966529846191,0.155364528298378,0.024842238053679466
1702338850154280700,108.62328076171875,9.758957862854004,0.163993239402771,0.013599066063761711
1702338850253545000,108.722544921875,9.761725425720215,0.15740440785884857,0.017688361927866936
1702338850352807400,108.82180737304688,9.754839897155762,0.16435715556144714,0.03066493570804596
1702338850452071400,108.92107153320312,9.787688255310059,0.14012783765792847,-0.00024899697746150196
1702338850551334000,109.020333984375,9.664386749267578,0.18134641647338867,0.04344997555017471
1702338850650598000,109.11959790039063,9.69379711151123,0.1656404584646225,0.0331740565598011
1702338850749860400,109.2188603515625,9.725065231323242,0.15544115006923676,0.020934900268912315
1702338850849124600,109.31812451171875,9.730609893798828,0.16034448146820068,0.027878083288669586
1702338850948387000,109.41738696289063,9.725008010864258,0.15386097133159637,0.02222776785492897
1702338851047651000,109.51665112304687,9.721636772155762,0.14645810425281525,0.009279925376176834
1702338851146913500,109.61591357421875,9.684775352478027,0.16547764837741852,0.024516625329852104
1702338851246176000,109.71517602539062,9.695808410644531,0.1512177735567093,0.024679431691765785
1702338851345438500,109.8144384765625,9.697464942932129,0.14842136204242706,0.025388114154338837
1702338851444704300,109.91370434570312,9.688961029052734,0.16046898066997528,0.023233333602547646
1702338851543966700,110.012966796875,9.674797058105469,0.14149731397628784,0.030224401503801346
1702338851643229200,110.11222924804687,9.672555923461914,0.15115074813365936,0.03301125392317772
1702338851742493200,110.2114931640625,9.712662696838379,0.13874877989292145,0.0253593847155571
1702338851841755600,110.31075561523437,9.69178581237793,0.13215993344783783,0.022400150075554848
1702338851941020000,110.41002001953125,9.699638366699219,0.12803232669830322,0.020254945382475853
1702338852040282400,110.50928247070313,9.691202163696289,0.13084791600704193,0.04175487905740738
1702338852139546400,110.60854638671876,9.667862892150879,0.13419979810714722,0.041362229734659195
1702338852238808800,110.70780883789062,9.692858695983887,0.11950897425413132,0.024258051067590714
1702338852338073000,110.80707299804688,9.700587272644043,0.13998419046401978,0.03170880675315857
1702338852437335600,110.90633544921874,9.705873489379883,0.13587573170661926,0.014250288717448711
1702338852536598000,111.00559790039063,9.691862106323242,0.14844051003456116,0.024756046012043953
1702338852635860500,111.10486059570313,9.6944580078125,0.138988196849823,0.027925968170166016
1702338852735124500,111.20412451171875,9.694438934326172,0.13118310272693634,0.017094600945711136
1702338852834387000,111.30338696289063,9.693930625915527,0.14731043577194214,0.019009962677955627
1702338852933651200,111.40265112304688,9.699073791503906,0.14775097370147705,0.02016875520348549
1702338853032913700,111.50191357421875,9.720526695251465,0.12130940705537796,0.014729129150509834
1702338853132177700,111.601177734375,9.703143119812012,0.14424586296081543,0.02841438539326191
1702338853231440100,111.70044018554688,9.710125923156738,0.13730266690254211,0.013254300691187382
1702338853330704100,111.7997041015625,9.738165855407715,0.13633541762828827,0.028787881135940552
1702338853429966600,111.89896655273438,9.73818588256836,0.13772405683994293,0.029496565461158752
1702338853529230800,111.99823095703125,9.766044616699219,0.13455413281917572,0.008188169449567795
1702338853628493300,112.09749340820312,9.772863388061523,0.1471380591392517,0.01774582266807556
1702338853727757300,112.19675732421875,9.771676063537598,0.1289038211107254,0.015294160693883896
1702338853827021300,112.29602124023438,9.772815704345703,0.13908396661281586,0.03101927787065506
1702338853926282200,112.3952822265625,9.791729927062988,0.1407599002122879,0.011348516680300236
1702338854025546500,112.49454638671875,9.785887718200684,0.1436329483985901,0.029726408421993256
1702338854124809000,112.59380908203126,9.784881591796875,0.133902907371521,0.02374090440571308
1702338854224073000,112.69307299804687,9.79138469696045,0.1410950869321823,0.018397044390439987
1702338854323335400,112.79233544921875,9.790245056152344,0.131489560008049,0.018808849155902863
1702338854422599400,112.89159936523437,9.788932800292969,0.13658441603183746,0.022266075015068054
1702338854521862100,112.99086206054687,9.822174072265625,0.14020445942878723,0.023185448721051216
1702338854621126100,113.09012622070313,9.780755043029785,0.14052049815654755,0.0249954666942358
1702338854720390100,113.18939013671876,9.801661491394043,0.13837526738643646,0.022266075015068054
1702338854819652600,113.28865258789062,9.792801856994629,0.1450503021478653,0.025129541754722595
1702338854918915000,113.3879150390625,9.804227828979492,0.12496775388717651,0.016012420877814293
1702338855018177500,113.48717749023437,9.77681827545166,0.13522452116012573,0.026144681498408318
1702338855117441800,113.58644189453125,9.77464485168457,0.1511794775724411,0.0009959879098460078
1702338855216704300,113.68570434570313,9.76978874206543,0.13593319058418274,0.021911732852458954
1702338855315968300,113.78496826171875,9.77721118927002,0.13889242708683014,0.023970747366547585
1702338855415230700,113.88423071289063,9.74771499633789,0.1503462791442871,0.042645517736673355
1702338855514494700,113.98349462890624,9.723054885864258,0.1591378003358841,0.016270993277430534
1702338855613757400,114.08275732421875,9.724031448364258,0.1541386991739273,0.03421793133020401
1702338855713021400,114.182021484375,9.706342697143555,0.15271176397800446,0.008801085874438286
1702338855812284000,114.28128393554688,9.714491844177246,0.13758040964603424,0.027523742988705635
1702338855911548000,114.3805478515625,9.695003509521484,0.13052229583263397,0.029467834159731865
1702338856010810400,114.47981030273438,9.72253704071045,0.14462894201278687,0.020350713282823563
1702338856110074600,114.57907470703125,9.719165802001953,0.11962389200925827,0.014872781001031399
1702338856209337000,114.67833715820312,9.723648071289062,0.13122139871120453,0.030291439965367317
1702338856308601000,114.77760107421875,9.740263938903809,0.13531069457530975,0.011540052480995655
1702338856407863600,114.87686352539062,9.730572700500488,0.1365077942609787,0.00969172827899456
1702338856507126000,114.9761259765625,9.734776496887207,0.13945746421813965,0.022735340520739555
1702338856606390300,115.07539038085937,9.740655899047852,0.1335102617740631,0.0290273018181324
1702338856705654300,115.174654296875,9.718620300292969,0.13202586770057678,0.022170307114720345
1702338856804918300,115.27391821289062,9.73499584197998,0.1455961912870407,0.02329079434275627
1702338856904180700,115.3731806640625,9.737285614013672,0.1339699625968933,0.019469648599624634
1702338857003443200,115.47244311523437,9.715191841125488,0.13325169682502747,0.018598157912492752
1702338857102705700,115.57170556640625,9.725448608398438,0.1302350014448166,0.02822284959256649
1702338857201970000,115.67096997070313,9.70617961883545,0.13134589791297913,0.025895684957504272
1702338857301232400,115.770232421875,9.717203140258789,0.14523227512836456,0.01867477409541607
1702338857400496400,115.86949633789062,9.697713851928711,0.1349276304244995,0.04016512632369995
1702338857499758800,115.9687587890625,9.709991455078125,0.13227485120296478,0.022946029901504517
1702338857599022800,116.06802294921874,9.699801445007324,0.1311735212802887,0.030770281329751015
1702338857698285600,116.16728564453125,9.694697380065918,0.12042834609746933,0.023683443665504456
1702338857797548000,116.26654809570313,9.68889331817627,0.14380532503128052,0.02087743952870369
1702338857896812000,116.36581201171875,9.707674026489258,0.1343434453010559,0.027025749906897545
1702338857996076000,116.46507592773438,9.69392204284668,0.1284249722957611,0.02905603125691414
1702338858095338500,116.56433837890626,9.70787525177002,0.1306084841489792,0.03222595527768135
1702338858194602800,116.66360278320313,9.688366889953613,0.13185347616672516,0.014566323719918728
1702338858293865200,116.762865234375,9.712922096252441,0.14177505671977997,0.03005201928317547
1702338858393127700,116.86212768554688,9.736165046691895,0.1393616944551468,0.027849353849887848
1702338858492391700,116.9613916015625,9.750473022460938,0.14173674583435059,0.022304382175207138
1702338858591654100,117.06065405273438,9.74592399597168,0.13619177043437958,0.023750480264425278
1702338858690918400,117.15991845703125,9.762012481689453,0.1286931335926056,0.04178360849618912
1702338858790180900,117.25918090820312,9.773419380187988,0.14641979336738586,0.02762908674776554
1702338858889444900,117.35844482421875,9.787678718566895,0.13523408770561218,0.012057199142873287
1702338858988707300,117.45770727539062,9.786270141601562,0.1352149397134781,0.033164482563734055
1702338859087969800,117.5569697265625,9.79294490814209,0.14556746184825897,0.028443116694688797
1702338859187233800,117.65623388671875,9.790053367614746,0.14739663898944855,0.011042057536542416
1702338859286498000,117.755498046875,9.767796516418457,0.16223110258579254,0.023731326684355736
1702338859385760500,117.85476049804687,9.788501739501953,0.14546211063861847,0.01713290810585022
1702338859485023000,117.95402294921875,9.790665626525879,0.14925453066825867,0.030128633603453636
1702338859584287000,118.05328686523437,9.804131507873535,0.15102624893188477,0.01508347038179636
1702338859683549400,118.15254956054687,9.784106254577637,0.15407167375087738,0.03076070360839367
1702338859782813700,118.25181372070313,9.808862686157227,0.14837346971035004,0.023348255082964897
1702338859882076200,118.351076171875,9.791853904724121,0.14163139462471008,0.030454246327280998
1702338859981338600,118.45033862304687,9.798308372497559,0.1446959674358368,0.024095244705677032
1702338860080602600,118.5496025390625,9.791997909545898,0.13966815173625946,0.015581464394927025
1702338860179865000,118.64886499023437,9.773188591003418,0.15706922113895416,0.024162283167243004
1702338860279129000,118.74812915039062,9.757856369018555,0.1674313247203827,0.03267606347799301
1702338860378393300,118.84739331054688,9.751018524169922,0.16938498616218567,0.03697605058550835
1702338860477654300,118.946654296875,9.73965072631836,0.15570931136608124,0.03190034255385399
1702338860576918300,119.04591821289063,9.731328010559082,0.15506765246391296,0.027858929708600044
1702338860676182300,119.14518237304688,9.741996765136719,0.14085566997528076,0.0249954666942358
1702338860775444700,119.24444482421875,9.717460632324219,0.1547803431749344,0.03427539020776749
1702338860874709000,119.343708984375,9.742562294006348,0.1444469690322876,0.021107282489538193
1702338860973971500,119.44297143554688,9.739516258239746,0.14551958441734314,0.02094447799026966
1702338861073234000,119.54223388671875,9.710747718811035,0.15044206380844116,0.029640216380357742
1702338861172498000,119.64149780273438,9.738759994506836,0.1499919444322586,0.03326982632279396
1702338861271762000,119.74076196289063,9.711007118225098,0.15396632254123688,0.023511061444878578
1702338861371024600,119.84002465820312,9.708277702331543,0.1484692394733429,0.03289633244276047
1702338861470287000,119.939287109375,9.709867477416992,0.13664187490940094,0.03280056267976761
1702338861569551000,120.03855102539063,9.719233512878418,0.13276328146457672,0.026700137183070183
1702338861668813600,120.1378134765625,9.711877822875977,0.15510596334934235,0.03190034255385399
1702338861768076000,120.23707592773438,9.700730323791504,0.13575123250484467,0.028184542432427406
1702338861867340000,120.33634008789062,9.71250057220459,0.13904565572738647,0.0252348855137825
1702338861966602800,120.43560278320312,9.714089393615723,0.12878888845443726,0.022093692794442177
1702338862065866800,120.53486669921875,9.695453643798828,0.13353900611400604,0.03092350997030735
1702338862165129200,120.63412915039062,9.693499565124512,0.1441979855298996,0.031057585030794144
1702338862264393200,120.73339331054687,9.701314926147461,0.13783897459506989,0.010812214575707912
1702338862363655700,120.83265576171875,9.693682670593262,0.13056060671806335,0.03768473491072655
1702338862462920000,120.931919921875,9.71725082397461,0.13166193664073944,0.020034680142998695
1702338862562182400,121.03118237304687,9.709628105163574,0.13614389300346375,0.02111686021089554
1702338862661446400,121.1304462890625,9.69614315032959,0.142531618475914,0.02950614131987095
1702338862760708900,121.229708984375,9.682611465454102,0.1308000385761261,0.036363136023283005
1702338862859971300,121.32897143554688,9.702157020568848,0.13531069457530975,0.040912117809057236
1702338862959235600,121.42823559570313,9.707376480102539,0.13443921506404877,0.027073632925748825
1702338863058498000,121.527498046875,9.697301864624023,0.13326126337051392,0.03349009156227112
1702338863157762000,121.62676196289063,9.709406852722168,0.12659581005573273,0.03402639552950859
1702338863257024500,121.7260244140625,9.69761848449707,0.14872781932353973,0.02194046415388584
1702338863356288500,121.82528857421875,9.73222827911377,0.13001471757888794,0.03593217954039574
1702338863455551000,121.92455102539063,9.715497970581055,0.1354256272315979,0.029439104720950127
1702338863554815200,122.02381518554688,9.739583969116211,0.13385502994060516,0.012315774336457253
1702338863654077700,122.12307763671875,9.742830276489258,0.13151828944683075,0.03170880675315857
1702338863753341700,122.222341796875,9.762319564819336,0.14464809000492096,0.005612008739262819
1702338863852604200,122.32160424804688,9.764435768127441,0.1522233486175537,0.02663310058414936
1702338863951866600,122.42086669921875,9.798011779785156,0.1425124704837799,0.0319865345954895
1702338864051132400,122.52013232421875,9.7836275100708,0.13962027430534363,0.016912641003727913
1702338864150393300,122.61939331054687,9.782421112060547,0.14576856791973114,0.03529053181409836
1702338864249657300,122.7186572265625,9.775659561157227,0.15574760735034943,0.03378697484731674
1702338864348919800,122.817919921875,9.79251480102539,0.13272495567798615,0.031335312873125076
1702338864448183800,122.91718383789062,9.789880752563477,0.1420336216688156,0.027552472427487373
1702338864547446300,123.0164462890625,9.79787826538086,0.13050314784049988,0.03507984057068825
1702338864646710500,123.11571044921875,9.77992057800293,0.1371111422777176,0.022361842915415764
1702338864745973000,123.21497290039062,9.811524391174316,0.1515529602766037,0.026997018605470657
1702338864845237000,123.31423706054687,9.796049118041992,0.13481271266937256,0.025397691875696182
1702338864944499500,123.41349951171875,9.800625801086426,0.13006260991096497,0.022926876321434975
1702338865043763700,123.512763671875,9.796756744384766,0.14579729735851288,0.011875240132212639
1702338865143026200,123.61202612304687,9.7734375,0.1442171335220337,0.02637452445924282
1702338865242290200,123.71129028320313,9.777114868164062,0.1265287697315216,0.02717897854745388
1702338865341552600,123.810552734375,9.76961612701416,0.14080777764320374,0.015447389334440231
1702338865440815000,123.90981518554688,9.778428077697754,0.14158351719379425,0.015725117176771164
1702338865540079000,124.0090791015625,9.725035667419434,0.13844232261180878,0.009643844328820705
1702338865639341800,124.108341796875,9.752991676330566,0.12905704975128174,0.012919112108647823
