time,seconds_elapsed,z,y,x
1702338694281681200,0.36068115234375,0,0,0
1702338694380863200,0.45986328125,-0.3367748260498047,0.14782285690307617,0.2699699103832245
1702338694480014800,0.559014892578125,0.11583805084228516,-0.01977086067199707,0.32649141550064087
1702338694579197200,0.658197265625,-0.18138504028320312,0.18747568130493164,0.9652167558670044
1702338694678379300,0.757379150390625,0.12279605865478516,0.03460979461669922,0.48628687858581543
1702338694777561300,0.856561279296875,0.02696514129638672,-0.08700227737426758,0.21228444576263428
1702338694876743400,0.955743408203125,-0.03527545928955078,0.12620019912719727,0.48782336711883545
1702338694975895000,1.05489501953125,0.29760169982910156,-0.18775463104248047,0.3760634660720825
1702338695075046700,1.154046630859375,-0.3221426010131836,-0.1737499237060547,0.672753095626831
1702338695174198300,1.2531982421875,0.22888422012329102,-0.2680850028991699,0.28458869457244873
1702338695273380400,1.35238037109375,-0.6186604499816895,-0.005065441131591797,0.7740755081176758
1702338695372532000,1.451531982421875,-0.24318456649780273,-0.029979228973388672,0.6779636144638062
1702338695471683600,1.55068359375,-0.1556391716003418,-0.040062904357910156,0.7329323291778564
1702338695570804700,1.6498046875,0.565859317779541,-0.22968530654907227,0.3921654224395752
1702338695669926000,1.74892578125,0.19585466384887695,-0.11586952209472656,0.29871606826782227
1702338695769077500,1.848077392578125,-1.3760194778442383,0.03222942352294922,0.1153252124786377
1702338695868473000,1.94747314453125,0.1713118553161621,-0.538886547088623,0.3838338851928711
1702338695967594200,2.04659423828125,-1.1595368385314941,0.28168296813964844,0.5439683198928833
1702338696068058000,2.14705810546875,-0.41278934478759766,0.2240157127380371,-0.2392798662185669
1702338696166050000,2.245050048828125,0.0725393295288086,0.025261402130126953,-0.5920605659484863
1702338696265201700,2.34420166015625,-0.12226629257202148,0.2305922508239746,-0.018218040466308594
1702338696364445000,2.44344482421875,0.1609344482421875,0.16918182373046875,0.07085037231445312
1702338696463108000,2.542108154296875,-0.00020074844360351562,0.1717967987060547,-0.07082247734069824
1702338696563266800,2.642266845703125,-0.2045135498046875,0.18970108032226562,0.21485114097595215
1702338696661930200,2.74093017578125,-0.12653589248657227,0.16885709762573242,0.6720685958862305
1702338696761051400,2.840051513671875,0.3719630241394043,0.06203508377075195,-0.7008893489837646
1702338696860660700,2.93966064453125,-2.868165969848633,1.2476084232330322,-0.5705984234809875
1702338696959354600,3.038354736328125,-0.5478630065917969,1.6133558750152588,0.9964311718940735
1702338697057987300,3.1369873046875,1.0293865203857422,0.9512984752655029,1.0492483377456665
1702338697157718800,3.23671875,0.9191322326660156,0.10027313232421875,-1.2677749395370483
1702338697256778800,3.33577880859375,0.18129444122314453,0.02766960859298706,-1.1792690753936768
1702338697355930400,3.434930419921875,-0.5151596069335938,0.1842028945684433,0.40547728538513184
1702338697455082000,3.53408203125,1.0660715103149414,-1.4850538969039917,-0.835817813873291
1702338697554233600,3.633233642578125,-0.18949604034423828,-0.836896538734436,-0.7171850204467773
1702338697653354800,3.732354736328125,0.3147602081298828,-1.4289591312408447,2.1705739498138428
1702338697752048600,3.831048583984375,-0.09053897857666016,-0.562343955039978,2.365780830383301
1702338697851627500,3.93062744140625,2.956014633178711,-0.7849940657615662,1.1903061866760254
1702338697950779100,4.029779052734375,-0.43758106231689453,-0.6782705187797546,0.7805808782577515
1702338698049961200,4.128961181640625,0.11246967315673828,-0.5468570590019226,0.6438254117965698
1702338698149082400,4.228082275390625,-0.00939178466796875,-0.5456503629684448,0.6145551800727844
1702338698248172800,4.3271728515625,0.0014486312866210938,-0.5042459964752197,0.6078960299491882
1702338698347019300,4.426019287109375,0.0032701492309570312,-0.5073426961898804,0.576756477355957
1702338698446812000,4.52581201171875,-0.012410163879394531,-0.4074980914592743,0.477786660194397
1702338698545645600,4.6246455078125,0.012730598449707031,-0.33308109641075134,0.39835840463638306
1702338698644827600,4.72382763671875,-0.0025615692138671875,-0.2985951900482178,0.3354378640651703
1702338698743918300,4.82291845703125,-0.006500244140625,-0.2599061131477356,0.28466981649398804
1702338698843222500,4.922222412109375,0.0017852783203125,-0.19098910689353943,0.22394371032714844
1702338698942313000,5.02131298828125,-0.0016937255859375,-0.1634661853313446,0.1928718537092209
1702338699041068000,5.120068115234375,-0.0010089874267578125,-0.1341056376695633,0.17457714676856995
1702338699140524800,5.21952490234375,-0.0012416839599609375,-0.10129071772098541,0.12941104173660278
1702338699239676400,5.318676513671875,0.004942893981933594,-0.08227679133415222,0.10535775870084763
1702338699338797300,5.41779736328125,0.0001163482666015625,-0.09197966754436493,0.08683556318283081
1702338699437918500,5.51691845703125,0.0036706924438476562,-0.06374262273311615,0.07701431214809418
1702338699537405700,5.61640576171875,-0.008909225463867188,-0.05898447334766388,0.06327280402183533
1702338699636008200,5.71500830078125,-0.0030393600463867188,-0.042648568749427795,0.06699185818433762
1702338699735342800,5.8143427734375,0.006251335144042969,-0.049379974603652954,0.029729239642620087
1702338699834586000,5.913586181640625,-0.00876617431640625,-0.03783659636974335,0.029819639399647713
1702338699933646000,6.01264599609375,-0.001312255859375,-0.023849010467529297,0.031077677384018898
1702338700032797700,6.111797607421875,-0.013466835021972656,-0.027330972254276276,0.01897861808538437
1702338700131918800,6.2109189453125,0.003941535949707031,-0.035807736217975616,0.03165905922651291
1702338700231070500,6.310070556640625,0.008862495422363281,-0.024129167199134827,0.015076424926519394
1702338700330008300,6.40900830078125,-0.004185676574707031,-0.015194326639175415,0.012036193162202835
1702338700429282000,6.508281982421875,0.0108795166015625,-0.010151706635951996,0.0047389548271894455
1702338700528494600,6.60749462890625,-0.006099700927734375,-0.005965173244476318,0.008190320804715157
1702338700627615700,6.70661572265625,0.0029077529907226562,-0.002083122730255127,-0.004906347021460533
1702338700726767400,6.805767333984375,-0.0027637481689453125,-0.0008142739534378052,0.0009610261768102646
1702338700825949400,6.904949462890625,0.0028924942016601562,-0.005402527749538422,0.015832163393497467
1702338702610312200,8.689312255859376,-0.0034780502319335938,-0.005069032311439514,0.011659309267997742
1702338702709555500,8.788555419921876,0.007876396179199219,-0.0001285746693611145,-0.005188953131437302
1702338702808707000,8.88770703125,0.005374908447265625,0.0087551549077034,0.002689965069293976
1702338702907828200,8.986828125,-0.0118865966796875,0.010217398405075073,-0.005450241267681122
1702338703007010300,9.08601025390625,0.006852149963378906,-0.0188840851187706,-0.025439005345106125
1702338703106162000,9.185161865234376,0.00012969970703125,-0.006840921938419342,0.0066080838441848755
1702338703205313500,9.2843134765625,0.00010967254638671875,-0.007971100509166718,-0.0030115842819213867
1702338703304465200,9.383465087890626,-0.01706409454345703,-0.002917081117630005,-0.016203314065933228
1702338703403616800,9.48261669921875,0.006924629211425781,0.005659386515617371,-0.004439346492290497
1702338703502615800,9.58161572265625,0.008162498474121094,0.006794586777687073,0.005764633417129517
1702338703601950500,9.680950439453126,-0.0039730072021484375,0.005361191928386688,0.008336089551448822
1702338703701102000,9.78010205078125,0.0066623687744140625,-0.0038768500089645386,-0.004284579306840897
1702338703800253700,9.879253662109376,0.0015611648559570312,-0.0027509555220603943,-0.012461792677640915
1702338703899374800,9.978374755859376,0.008088111877441406,0.00936928391456604,0.0007093921303749084
1702338703998526500,10.0775263671875,-0.007625579833984375,0.0035064145922660828,-0.006335631012916565
1702338704097739000,10.176739013671876,0.003215789794921875,0.00940895825624466,0.0010526366531848907
1702338704196707600,10.27570751953125,0.0030832290649414062,0.001954220235347748,0.013968002051115036
1702338704295981300,10.374981201171876,0.003765106201171875,-0.0018716007471084595,-0.005612138658761978
1702338704395255000,10.474255126953125,0.012712478637695312,0.0005096718668937683,0.00003102049231529236
1702338704494376000,10.5733759765625,-0.014540672302246094,-0.013079792261123657,-0.010067436844110489
1702338704593527600,10.672527587890626,-0.007325172424316406,0.006339162588119507,-0.012830566614866257
1702338704692618200,10.7716181640625,0.0030765533447265625,0.0041728392243385315,0.006388179957866669
1702338704792105500,10.87110546875,0.0025510787963867188,0.003561578691005707,0.010822582989931107
1702338704890799400,10.96979931640625,-0.011031150817871094,0.0014356672763824463,-0.0062395744025707245
1702338704990073000,11.069072998046876,0.011554718017578125,0.006489992141723633,0.01708792895078659
1702338705089194200,11.1681943359375,-0.011527061462402344,-0.0033114999532699585,-0.0038004517555236816
1702338705188345900,11.267345947265625,-0.005608558654785156,-0.009889990091323853,0.001903429627418518
1702338705287497500,11.36649755859375,-0.015045166015625,-0.006981506943702698,0.005871478468179703
1702338705386649000,11.465649169921875,0.007412910461425781,-0.0005443766713142395,0.0020096302032470703
1702338705485495300,11.564495361328126,-0.0029935836791992188,0.0060183703899383545,0.00917067751288414
1702338705584891100,11.66389111328125,0.0058879852294921875,-0.008895225822925568,0.00038763880729675293
1702338705684042800,11.763042724609376,-0.000690460205078125,-0.006526000797748566,-0.0021345242857933044
1702338705783194400,11.8621943359375,-0.0053539276123046875,0.0014039203524589539,-0.006248530000448227
1702338705882376400,11.96137646484375,0.007504463195800781,0.0004228353500366211,-0.0024766139686107635
1702338707567191000,13.64619091796875,-0.006913185119628906,-0.01048809289932251,0.0014845021069049835
1702338707666708700,13.745708740234376,-0.005764007568359375,-0.008240528404712677,0.0011540055274963379
1702338707765830000,13.844829833984376,-0.000019073486328125,-0.000021182000637054443,-0.01189383864402771
1702338707864920600,13.943920654296875,-0.02315807342529297,-0.00273306667804718,0.001974150538444519
1702338707963828000,14.042827880859376,0.0022516250610351562,-0.001372598111629486,0.005946371704339981
1702338708063223800,14.142223876953125,-0.0037202835083007812,0.013723514974117279,-0.0019379258155822754
1702338708162375400,14.24137548828125,-0.00429534912109375,0.004339404404163361,0.0062814801931381226
1702338708261496300,14.340496337890626,0.004801750183105469,-0.012267164885997772,-0.008046653121709824
1702338708360648000,14.43964794921875,-0.0007791519165039062,0.010218828916549683,-0.006788361817598343
1702338708459799600,14.538799560546876,0.013704299926757812,0.012190759181976318,-0.004522200673818588
1702338708558676500,14.637676513671876,0.010632514953613281,0.0034362822771072388,-0.007829025387763977
1702338708658438700,14.737438720703125,-0.00032138824462890625,-0.006606340408325195,-0.0006368793547153473
1702338708757193500,14.836193359375,-0.0014657974243164062,-0.009018555283546448,0.006585467606782913
1702338708856314600,14.935314697265625,-0.015984535217285156,0.012520983815193176,-0.010556157678365707
1702338708955466200,15.03446630859375,0.0038347244262695312,-0.009451821446418762,-0.014035750180482864
1702338709054617900,15.133617919921875,-0.00038814544677734375,-0.005826376378536224,0.008594430983066559
1702338709153891300,15.232891357421876,-0.004314422607421875,0.00557246059179306,-0.004866715520620346
1702338709252829400,15.331829345703126,0.0047855377197265625,0.015499226748943329,-0.004172109067440033
1702338709352255700,15.431255859375,0.0023937225341796875,-0.001013144850730896,0.004796452820301056
1702338709451377000,15.530376953125,0.0027971267700195312,0.004821814596652985,0.009465005248785019
1702338709550436900,15.629436767578126,0.002330780029296875,-0.015438586473464966,-0.003773033618927002
1702338709649649400,15.7286494140625,0.0011425018310546875,0.0019492805004119873,0.004383690655231476
1702338709748770600,15.8277705078125,-0.0062389373779296875,-0.006224244832992554,-0.0036171898245811462
1702338709847952600,15.92695263671875,0.000789642333984375,-0.0014957189559936523,0.020385321229696274
1702338709947545900,16.0265458984375,-0.008128166198730469,0.0016243234276771545,-0.01701119914650917
1702338710046209300,16.125209228515626,-0.00038242340087890625,-0.006123997271060944,-0.001869112253189087
1702338710145330200,16.224330078125,0.010450363159179688,0.004129648208618164,0.008391857147216797
1702338710244481800,16.323481689453125,0.002719879150390625,0.0035252273082733154,0.0005271770060062408
1702338710343633400,16.42263330078125,-0.00450897216796875,0.004216805100440979,-0.009644344449043274
1702338710442785000,16.521784912109375,0.00023555755615234375,-0.010363906621932983,-0.006123322993516922
1702338710541723100,16.62072314453125,-0.0022039413452148438,-0.010185882449150085,-0.0032017454504966736
1702338710641088300,16.720088134765625,-0.009804725646972656,0.007942594587802887,-0.017537035048007965
1702338710740240000,16.819239990234376,0.00021266937255859375,0.011862151324748993,0.012432005256414413
1702338710839391500,16.9183916015625,-0.00261688232421875,0.003962628543376923,0.005887188017368317
1702338712623388200,18.70238818359375,-0.007598876953125,-0.0019326955080032349,-0.013582743704319
1702338712722905900,18.80190576171875,0.007634162902832031,-0.011134564876556396,0.009710930287837982
1702338712822057500,18.901057373046875,0.013543128967285156,0.004786074161529541,-0.016328252851963043
1702338712921819600,19.000819580078126,-0.0046749114990234375,-0.0007065683603286743,0.0050839707255363464
1702338713020391400,19.099391357421876,-0.0034999847412109375,-0.00011137127876281738,0.004938803613185883
1702338713119573500,19.198573486328126,-0.0017185211181640625,0.004752926528453827,0.001235276460647583
1702338713218633500,19.297633544921876,-0.00063323974609375,-0.0007367134094238281,-0.012996669858694077
1702338713317846300,19.39684619140625,0.009850502014160156,0.0018111616373062134,-0.0060715824365615845
1702338713416936700,19.495936767578126,0.0042171478271484375,0.011136554181575775,0.0024675317108631134
1702338713516118800,19.595118896484376,-0.004864692687988281,-0.0006332024931907654,-0.0032016076147556305
1702338713615179000,19.694178955078126,-0.006054878234863281,0.004766605794429779,0.006455078721046448
1702338713714758000,19.7937578125,0.017701148986816406,-0.005904138088226318,-0.0031169913709163666
1702338713813512700,19.8925126953125,-0.0032024383544921875,-0.004472486674785614,-0.006248407065868378
1702338713912664300,19.991664306640626,0.0009183883666992188,0.0031168609857559204,-0.0028578564524650574
1702338714011816000,20.09081591796875,-0.0020189285278320312,0.0030914247035980225,0.0027047283947467804
1702338714110967600,20.189967529296876,0.004702568054199219,-0.006518952548503876,-0.0014495551586151123
1702338714210668500,20.28966845703125,-0.0040645599365234375,0.00742010772228241,0.006262730807065964
1702338714309331700,20.388331787109376,-0.0037784576416015625,-0.004126064479351044,-0.00363723561167717
1702338714408697000,20.487697021484376,-0.0011510848999023438,-0.004188060760498047,0.01726372167468071
1702338714507696000,20.586696044921876,-0.0053558349609375,0.005748666822910309,-0.000875275582075119
1702338714606847700,20.68584765625,-0.0008649826049804688,0.014857932925224304,-0.011585455387830734
1702338714705968600,20.78496875,0.014039993286132812,0.0020579323172569275,-0.0028777755796909332
1702338714805151000,20.88415087890625,-0.0038671493530273438,-0.01135312020778656,-0.0024841241538524628
1702338714904302600,20.983302490234376,0.012725830078125,0.015816442668437958,-0.008084703236818314
1702338715003271000,21.08227099609375,0.004231452941894531,-0.019038483500480652,-0.005627784878015518
1702338715102575000,21.1815751953125,-0.011254310607910156,0.002982102334499359,0.00761939212679863
1702338715201696300,21.2806962890625,0.0033864974975585938,-0.007004290819168091,-0.006471209228038788
1702338715300847900,21.379847900390626,0.00042724609375,0.020996615290641785,0.010905623435974121
1702338715399999500,21.47899951171875,-0.0044345855712890625,0.0019869059324264526,0.0082009956240654
1702338715499120600,21.57812060546875,0.006691932678222656,0.004931345582008362,0.006376251578330994
1702338715597753300,21.67675341796875,0.00557708740234375,-0.0013700351119041443,-0.005194518715143204
1702338715697759500,21.776759521484376,-0.00494384765625,-0.003457009792327881,0.005621582269668579
1702338715796575500,21.875575439453126,0.015428543090820312,0.00003793835639953613,0.0034341737627983093
1702338715895696400,21.9746962890625,-0.004703521728515625,-0.008242689073085785,0.0023179203271865845
1702338715994817500,22.073817626953126,-0.008700370788574219,0.0027724504470825195,0.008260808885097504
1702338717580663600,23.65966357421875,-0.0020685195922851562,0.004073642194271088,0.0014505758881568909
1702338717680028700,23.759028564453125,0.009440422058105469,0.015445902943611145,-0.01085546612739563
1702338717779332900,23.858332763671875,-0.013280868530273438,-0.0033966153860092163,0.007662832736968994
1702338717878454000,23.9574541015625,0.0000934600830078125,-0.000750228762626648,-0.006412822753190994
1702338717978277000,24.057277099609376,-0.011895179748535156,0.0042864009737968445,0.013312332332134247
1702338718076757200,24.15575732421875,-0.009505271911621094,-0.01588699221611023,-0.007340431213378906
1702338718175603700,24.254603759765626,-0.0007495880126953125,-0.008767001330852509,0.008560236543416977
1702338718275060500,24.354060546875,0.002178192138671875,0.010272808372974396,0.008245792239904404
1702338718374181600,24.453181640625,0.0014190673828125,-0.011285342276096344,0.0003836005926132202
1702338718473333200,24.552333251953126,0.02391815185546875,0.009829118847846985,-0.0033616386353969574
1702338718572149200,24.651149169921876,-0.014783859252929688,0.0038928240537643433,0.015091568231582642
1702338718671636500,24.750636474609376,-0.00672149658203125,-0.0038767382502555847,-0.001875355839729309
1702338718770452500,24.849452392578126,0.011946678161621094,-0.0031561776995658875,-0.0020457692444324493
1702338718870244900,24.949244873046876,0.001979827880859375,-0.0013245940208435059,0.002986650913953781
1702338718969060900,25.048060791015626,0.0016469955444335938,-0.005387201905250549,-0.011558528989553452
1702338719068181800,25.147181640625,-0.005810737609863281,-0.00723285973072052,-0.007702678442001343
1702338719167913200,25.246913330078126,-0.010031700134277344,-0.00514192134141922,-0.004865854978561401
1702338719266668300,25.345668212890626,0.010787010192871094,-0.001792997121810913,0.00024945661425590515
1702338719365820000,25.44481982421875,0.010178565979003906,-0.0005990490317344666,-0.009404987096786499
1702338719464605200,25.543605224609376,0.006897926330566406,0.013500019907951355,0.016020547598600388
1702338719564123100,25.643123046875,0.008942604064941406,0.002543047070503235,0.0016899146139621735
1702338719663274800,25.742274658203126,0.021022796630859375,0.012976691126823425,0.010041829198598862
1702338719762426400,25.84142626953125,-0.004033088684082031,0.001290738582611084,-0.008047506213188171
1702338719861577700,25.94057763671875,0.009419441223144531,-0.0076446533203125,-0.002373233437538147
1702338719960729300,26.039729248046875,0.0050487518310546875,-0.0030765607953071594,0.006716333329677582
1702338720059698000,26.138697998046876,-0.011353492736816406,0.015849925577640533,-0.005662843585014343
1702338720159521000,26.23852099609375,-0.005074501037597656,0.0053107962012290955,0.005172863602638245
1702338720258184200,26.33718408203125,-0.008221626281738281,-0.0006770864129066467,0.002622954547405243
1702338720357335800,26.436335693359375,-0.007636070251464844,-0.00928441435098648,-0.010272540152072906
1702338720456487400,26.5354873046875,-0.0055789947509765625,-0.01761879026889801,-0.003397751599550247
1702338720555639000,26.63463916015625,-0.01422119140625,0.006121672689914703,0.0010784231126308441
1702338720654729700,26.733729736328126,0.011284828186035156,-0.002779163420200348,-0.0027353689074516296
1702338720753667600,26.83266748046875,-0.0033626556396484375,0.005347952246665955,0.01519511267542839
1702338720852697300,26.931697265625,-0.011579513549804688,0.0005685761570930481,0.0010055266320705414
1702338720952154000,27.031154052734376,-0.016439437866210938,0.004145480692386627,-0.0016387701034545898
1702338722637225500,28.7162255859375,-0.003987312316894531,-0.020319126546382904,-0.005672808736562729
1702338722736743400,28.815743408203126,-0.008910179138183594,-0.0017454922199249268,-0.01083308830857277
1702338722835895000,28.91489501953125,-0.010617256164550781,0.002621956169605255,-0.0031214654445648193
1702338722935046700,29.014046630859376,0.0019350051879882812,-0.006503276526927948,-0.003081228584051132
1702338723034198300,29.1131982421875,0.008390426635742188,0.0034382417798042297,-0.0062492117285728455
1702338723133350000,29.212349853515626,-0.007372856140136719,0.011708937585353851,-0.0021393150091171265
1702338723232501500,29.31150146484375,0.017801284790039062,-0.001334063708782196,0.016461145132780075
1702338723331561500,29.4105615234375,-0.00830841064453125,0.0009665265679359436,0.0024732910096645355
1702338723430774000,29.50977392578125,-0.0009317398071289062,-0.00153331458568573,-0.008003663271665573
1702338723529925600,29.608925537109375,0.004004478454589844,0.011979438364505768,0.002033904194831848
1702338723629077200,29.7080771484375,-0.0066318511962890625,-0.0019115060567855835,-0.007568612694740295
1702338723728198400,29.807198486328126,-0.009124755859375,0.008474424481391907,0.005979310721158981
1702338723827350000,29.90635009765625,0.011151313781738281,-0.0020330995321273804,0.00209943950176239
1702338723926196500,30.005196533203126,0.01168060302734375,0.004383884370326996,-0.004716280847787857
1702338724025653200,30.1046533203125,0.0033540725708007812,-0.013434723019599915,0.004363205283880234
1702338724124804900,30.203804931640626,-0.011564254760742188,0.0016635134816169739,0.0019606538116931915
1702338724224444700,30.303444580078125,-0.008441925048828125,0.0006858184933662415,-0.017211012542247772
1702338724323291100,30.402291015625,-0.0018396377563476562,0.010970324277877808,-0.008873295038938522
1702338724422412300,30.501412353515626,-0.009515762329101562,-0.007957488298416138,0.0068884193897247314
1702338724521441800,30.60044189453125,0.010433197021484375,-0.0005567148327827454,-0.002756074070930481
1702338724620624000,30.699623779296875,0.00151824951171875,-0.0020331591367721558,-0.003593903034925461
1702338724719531500,30.798531494140626,-0.007511138916015625,-0.01038101315498352,0.001728050410747528
1702338724818957600,30.89795751953125,0.01607990264892578,-0.004570595920085907,-0.0026089586317539215
1702338724918109200,30.997109130859375,-0.0037689208984375,0.0018768087029457092,-0.003859233111143112
1702338725017260800,31.0962607421875,0.02120494842529297,0.0052549466490745544,0.02266979217529297
1702338725116290600,31.19529052734375,0.0013055801391601562,0.01163443922996521,-0.0035454705357551575
1702338725215838700,31.294838623046875,-0.0017042160034179688,-0.00343390554189682,0.003749329596757889
1702338725314685200,31.393685302734376,0.004569053649902344,0.0008096098899841309,0.005823511630296707
1702338725413806300,31.492806396484376,0.0018148422241210938,-0.0004687011241912842,0.006766457110643387
1702338725512927500,31.591927490234376,0.0007114410400390625,0.0060910508036613464,-0.006018441170454025
1702338725612079000,31.6910791015625,-0.0065784454345703125,0.008747369050979614,0.004473574459552765
1702338725711200000,31.790199951171875,-0.0026912689208984375,-0.008650504052639008,-0.005926482379436493
1702338725810351600,31.8893515625,-0.007430076599121094,-0.010335832834243774,-0.0025990642607212067
1702338725909625300,31.988625244140625,0.008584022521972656,-0.0005547404289245605,-0.003052990883588791
1702338726008654800,32.08765478515625,-0.005625724792480469,-0.0043675899505615234,-0.0006366968154907227
1702338726107715000,32.186715087890626,0.010072708129882812,-0.0015577450394630432,-0.0009791292250156403
1702338728585467600,34.66446752929688,-0.0055484771728515625,-0.008354172110557556,0.007535364478826523
1702338728684955000,34.76395483398438,0.015717506408691406,0.00030837953090667725,0.010633617639541626
1702338728784106500,34.8631064453125,0.011502265930175781,-0.005637861788272858,0.006827007979154587
1702338728883227600,34.9622275390625,0.0043849945068359375,0.00018300861120224,0.01399286463856697
1702338728982226700,35.061226806640626,0.0012607574462890625,0.016605034470558167,0.0008205212652683258
1702338729082080300,35.161080322265626,0.0014581680297851562,0.006310366094112396,-0.0045685358345508575
1702338729180652000,35.259652099609376,-0.0007791519165039062,0.01845652610063553,-0.0010459385812282562
1702338729279773200,35.358773193359376,-0.010226249694824219,-0.012063354253768921,-0.0021210573613643646
1702338729378894300,35.457894287109376,0.009438514709472656,-0.013188675045967102,-0.011888992041349411
1702338729478076400,35.557076416015626,0.009454727172851562,-0.004914090037345886,-0.006003744900226593
1702338729577166800,35.65616674804688,-0.005688667297363281,-0.008805014193058014,0.009282693266868591
1702338729676227000,35.75522705078125,-0.009124755859375,0.002729840576648712,-0.006375066936016083
1702338729775470000,35.85446997070313,-0.004803657531738281,0.010706156492233276,0.009774204343557358
1702338729874591200,35.95359130859375,-0.00919342041015625,0.015390649437904358,0.0013008080422878265
1702338729973712400,36.05271240234375,0.0067081451416015625,0.0077042654156684875,0.011392969638109207
1702338730072833500,36.15183349609375,-0.0035877227783203125,-0.006292328238487244,-0.0001666620373725891
1702338730172198700,36.25119873046875,-0.008975028991699219,0.010743916034698486,-0.0045855604112148285
1702338730271442000,36.35044189453125,-0.0022897720336914062,-0.012107186019420624,-0.001930292695760727
1702338730370441000,36.44944091796875,0.0000896453857421875,0.0035637542605400085,-0.006112236529588699
1702338730469531400,36.548531494140626,-0.008717536926269531,-0.016086071729660034,0.0020203739404678345
1702338730568652500,36.647652587890626,0.005908966064453125,-0.010127879679203033,0.010778520256280899
1702338730668963800,36.7479638671875,-0.0006532669067382812,-0.004395157098770142,-0.009493090212345123
1702338730766894600,36.84589453125,0.0014524459838867188,0.01278696209192276,0.0015791989862918854
1702338730866077000,36.945076904296876,0.0075931549072265625,-0.010815434157848358,0.0036267414689064026
1702338730965137000,37.044136962890626,0.015508651733398438,-0.0009418800473213196,-0.007833655923604965
1702338731064258000,37.143258056640626,-0.009023666381835938,0.01566576212644577,0.004563160240650177
1702338733740619000,39.81961889648438,0.010850906372070312,0.00399470329284668,0.00995142012834549
1702338733839892700,39.918892822265626,0.009037971496582031,0.003416292369365692,0.009055942296981812
1702338733938952700,40.01795263671875,0.005942344665527344,0.008938640356063843,0.010199222713708878
1702338734037799200,40.11679907226563,-0.003833770751953125,-0.0064725205302238464,-0.0031366460025310516
1702338734137073000,40.216072998046876,-0.006778717041015625,0.00825953483581543,0.005660366266965866
1702338734236346600,40.3153466796875,0.0035314559936523438,-0.010186754167079926,-0.004546370357275009
1702338734335467800,40.4144677734375,0.0005397796630859375,-0.02236326038837433,-0.006268329918384552
1702338734434588700,40.51358862304688,0.008832931518554688,-0.0006311163306236267,-0.002912800759077072
1702338734533709800,40.61270971679688,0.004172325134277344,-0.006840534508228302,0.001870620995759964
1702338734632831000,40.7118310546875,0.0038890838623046875,-0.001280181109905243,0.00587569922208786
1702338734731891000,40.81089086914063,-0.0035448074340820312,0.006565965712070465,-0.008394099771976471
1702338734831103700,40.910103759765626,-0.0005550384521484375,0.0023637861013412476,-0.0034282244741916656
1702338734930225000,41.009224853515626,0.0007305145263671875,-0.010712951421737671,0.001478869467973709
1702338735030047700,41.1090478515625,-0.006580352783203125,0.0007558837532997131,0.003571026027202606
1702338735128497400,41.20749731445313,-0.007476806640625,0.005073189735412598,0.004085879772901535
1702338735228793600,41.307793701171875,0.013720512390136719,-0.004461497068405151,-0.013438019901514053
1702338735327304400,41.406304443359375,0.0022516250610351562,0.004356637597084045,-0.0013307705521583557
1702338735426151000,41.50515087890625,-0.0005130767822265625,0.004094138741493225,-0.003964751958847046
1702338735525272000,41.60427197265625,0.0059566497802734375,0.007458500564098358,0.012994050979614258
1702338735624393000,41.70339306640625,-0.0018091201782226562,-0.001309134066104889,0.0075192637741565704
1702338735723697200,41.802697265625,-0.005908966064453125,-0.007777109742164612,-0.0058145672082901
1702338735822665700,41.901665771484375,0.013044357299804688,-0.005200207233428955,-0.01013733446598053
1702338735921756400,42.00075634765625,-0.007493019104003906,-0.00783558189868927,-0.008905939757823944
1702338736020663800,42.099663818359375,0.004933357238769531,0.0031126588582992554,0.004488814622163773
1702338736120517400,42.199517333984375,0.004917144775390625,0.01820927858352661,0.005615781992673874
1702338738597842700,44.6768427734375,0.0026235580444335938,0.0019232630729675293,0.006985902786254883
1702338738697360600,44.776360595703125,-0.008585929870605469,0.006088294088840485,-0.010990425944328308
1702338738796481800,44.875481689453125,-0.005161285400390625,0.006339967250823975,0.0035567544400691986
1702338738895663900,44.974663818359375,0.001689910888671875,-0.017368443310260773,-0.009917214512825012
1702338738994785000,45.073784912109375,0.016173362731933594,-0.0056459978222846985,0.008014842867851257
1702338739093509400,45.17250927734375,-0.006075859069824219,-0.00022011250257492065,-0.011014286428689957
1702338739193179600,45.2721796875,0.006916999816894531,-0.001703009009361267,0.003473423421382904
1702338739292148200,45.371148193359375,0.0025644302368164062,-0.0004951953887939453,-0.004344411194324493
1702338739391299800,45.4702998046875,-0.006243705749511719,0.0076583921909332275,-0.0004953667521476746
1702338739490482000,45.56948193359375,0.007563591003417969,0.0028690919280052185,0.004295073449611664
1702338739589572600,45.668572509765625,-0.006072044372558594,-0.0019104182720184326,0.006309796124696732
1702338739688693500,45.767693603515625,-0.011441230773925781,-0.0035045742988586426,-0.004825592041015625
1702338739787509500,45.866509521484375,0.008023262023925781,0.0151175856590271,0.010689273476600647
1702338739886813700,45.965813720703125,-0.004096031188964844,-0.015272371470928192,0.003259323537349701
1702338739986087400,46.06508740234375,0.010151863098144531,0.00611250102519989,-0.00571417436003685
1702338740085239000,46.164239013671875,-0.01746654510498047,0.01832086592912674,-0.0008357875049114227
1702338740184573700,46.26357373046875,0.0037946701049804688,0.00538228452205658,-0.019160643219947815
1702338740283725300,46.362725341796875,0.005158424377441406,0.0033755451440811157,0.0035035423934459686
1702338740382724400,46.461724365234375,-0.009664535522460938,-0.00628555566072464,0.013234663754701614
1702338740482364200,46.5613642578125,0.007902145385742188,-0.009945757687091827,-0.0021970048546791077
1702338740581119200,46.660119140625,0.0025920867919921875,-0.004618778824806213,-0.0071013085544109344
1702338740680270800,46.759270751953125,-0.016989707946777344,-0.00016485899686813354,0.010361384600400925
1702338740779391700,46.858391845703125,0.014568328857421875,-0.008841842412948608,-0.009825639426708221
1702338740878543400,46.95754345703125,-0.0018148422241210938,-0.012095525860786438,-0.0015474595129489899
1702338740977664500,47.05666455078125,0.013251304626464844,0.002750091254711151,-0.004135433584451675
1702338741076541400,47.15554150390625,0.0010623931884765625,-0.0032067447900772095,-0.009942963719367981
1702338743554538200,49.633538330078125,-0.005293846130371094,0.020348668098449707,-0.008945725858211517
1702338743653720600,49.732720458984375,-0.0044116973876953125,0.017040878534317017,-0.007537778466939926
1702338743752872200,49.8318720703125,-0.015636444091796875,-0.0005273744463920593,-0.0003783032298088074
1702338743852054300,49.93105419921875,-0.0034551620483398438,0.0040139928460121155,0.005606997758150101
1702338743951206000,50.030205810546875,0.0015087127685546875,0.007014408707618713,-0.01380329579114914
1702338744050326800,50.129326904296875,-0.001537322998046875,0.005901329219341278,-0.000007834285497665405
1702338744149051400,50.22805151367187,0.007096290588378906,0.0022201836109161377,0.0003286823630332947
1702338744248721700,50.3277216796875,0.00672149658203125,-0.015251129865646362,0.0005265958607196808
1702338744347659800,50.42665966796875,-0.005970001220703125,-0.003453865647315979,-0.012416549026966095
1702338744446780700,50.52578076171875,-0.008962631225585938,-0.004809729754924774,0.007493074983358383
1702338744545901800,50.62490185546875,0.00609588623046875,0.009240113198757172,0.004190433770418167
1702338744645053400,50.724053466796875,0.023439407348632812,-0.0009685829281806946,-0.007395699620246887
1702338744744174600,50.823174560546875,-0.0012178421020507812,0.0020632073283195496,-0.0026821978390216827
1702338744842990600,50.921990478515625,0.0005846023559570312,-0.0021880120038986206,0.008873969316482544
1702338744942386200,51.02138623046875,0.007267951965332031,0.004627592861652374,-0.009453531354665756
1702338745041507300,51.12050732421875,-0.011507034301757812,-0.0044161006808280945,0.002803131937980652
1702338745140689400,51.219689453125,-0.004006385803222656,0.013933949172496796,0.001480884850025177
1702338745240024000,51.319024169921875,0.0010585784912109375,-0.011853910982608795,0.0007896311581134796
1702338745339114800,51.41811474609375,-0.010296821594238281,-0.012575484812259674,-0.001408502459526062
1702338745438113800,51.51711376953125,0.010975837707519531,-0.008806534111499786,0.003537330776453018
1702338745537937000,51.61693701171875,0.012333869934082031,0.0023223236203193665,-0.004266340285539627
1702338745636752600,51.715752685546875,0.011080741882324219,0.00362280011177063,-0.007257189601659775
1702338745735629600,51.814629638671875,-0.0031385421752929688,-0.008468642830848694,0.0026561543345451355
1702338745834750700,51.913750732421875,0.013736724853515625,0.0010138601064682007,0.002915959805250168
1702338745933994000,52.012993896484375,-0.005709648132324219,0.004930973052978516,-0.02199380472302437
1702338746033023500,52.1120234375,-0.009551048278808594,0.007763341069221497,-0.00043087080121040344
1702338746131931000,52.210930908203125,-0.0043621063232421875,0.0029579773545265198,-0.0032142922282218933
1702338748610080300,54.689080322265625,-0.15735530853271484,1.0460293292999268,-1.1916776895523071
1702338748708835300,54.78783544921875,0.3506889343261719,0.14921581745147705,-0.389600932598114
1702338748808383500,54.887383544921875,0.1104421615600586,-1.1185883283615112,1.2252463102340698
1702338748907260400,54.986260498046875,0.40041542053222656,-0.5444713234901428,1.1444416046142578
1702338749006381600,55.085381591796875,0.768646240234375,0.45013535022735596,1.5256762504577637
1702338749105502700,55.184502685546875,0.382537841796875,1.2082724571228027,1.5876679420471191
1702338749204440600,55.283440673828125,-0.5901765823364258,0.7604821920394897,0.6032610535621643
1702338749304294100,55.383294189453125,0.5154323577880859,-0.6073591709136963,-0.6938158273696899
1702338749402927000,55.481927001953125,-1.6618661880493164,-0.06759917736053467,-1.5745179653167725
1702338749502052600,55.58105249023438,-0.2713594436645508,0.6524585485458374,-2.393509864807129
1702338749601173800,55.680173828125,-0.11480236053466797,0.2713770568370819,0.23857951164245605
1702338749700295000,55.779294921875,-0.9699039459228516,0.9057719707489014,-1.8037047386169434
1702338749799446500,55.878446533203125,0.13226318359375,0.30475378036499023,-0.9856836795806885
1702338749898476000,55.97747607421875,0.08210563659667969,0.6689600348472595,-0.35349488258361816
1702338749997719000,56.07671899414063,0.0352020263671875,0.45489299297332764,0.10560643672943115
1702338750096840200,56.17584008789063,-0.3084850311279297,-0.8330900073051453,-0.6678786277770996
1702338750196174800,56.2751748046875,-0.21948909759521484,-1.058265209197998,-0.014217078685760498
1702338750295357200,56.374357177734375,-0.8079166412353516,-0.06168501451611519,-2.552608013153076
1702338750394264600,56.4732646484375,1.5195541381835938,-0.9460857510566711,-2.4981884956359863
1702338750493568800,56.57256884765625,0.3352804183959961,-0.07826494425535202,-1.9055061340332031
1702338750592659200,56.6716591796875,0.3818397521972656,-0.03664355352520943,-1.9342923164367676
1702338750691750000,56.77075,0.26114845275878906,-0.017425190657377243,-1.861191987991333
1702338750790871000,56.86987109375,0.29841136932373047,0.006080206483602524,-1.8433446884155273
1702338750889992200,56.9689921875,0.2601900100708008,0.009556088596582413,-1.5214347839355469
1702338750989113000,57.06811303710938,0.19521331787109375,0.011661671102046967,-1.2743080854415894
1702338751088326000,57.167325927734375,0.18782901763916016,-0.004615182057023048,-1.0648033618927002
1702338753566078500,59.64507836914063,0.0025625228881835938,-0.009368594735860825,0.0016035884618759155
1702338753664894500,59.74389453125,-0.0034503936767578125,-0.0017494969069957733,-0.013135477900505066
1702338753764229000,59.84322900390625,0.0055084228515625,-0.016593586653470993,-0.022615939378738403
1702338753863502800,59.9425029296875,-0.00018787384033203125,-0.0006003417074680328,-0.0073483288288116455
1702338753962593300,60.04159326171875,0.0038385391235351562,-0.0028359852731227875,0.004154130816459656
1702338754061714400,60.14071435546875,-0.00279998779296875,-0.01227768138051033,-0.009733453392982483
1702338754160835600,60.239835693359375,0.007237434387207031,0.00458618625998497,0.006597980856895447
1702338754259956700,60.338956787109375,0.01641082763671875,-0.0053234100341796875,0.003022223711013794
1702338754359840800,60.4388408203125,0.0061016082763671875,-0.013993652537465096,0.008411586284637451
1702338754458198800,60.53719873046875,0.006276130676269531,0.017521321773529053,0.010146573185920715
1702338754557289500,60.63628955078125,-0.0027666091918945312,-0.010845296084880829,-0.00992746651172638
1702338754656441000,60.735441162109375,-0.008687973022460938,-0.00657239556312561,-0.007961466908454895
1702338754755562200,60.834562255859375,0.0067310333251953125,-0.011831019073724747,-0.015130415558815002
1702338754854683100,60.93368310546875,-0.000774383544921875,-0.015347529202699661,-0.003513529896736145
1702338754953713000,61.032712890625,0.0037555694580078125,0.0032492410391569138,-0.00021478533744812012
1702338755052895000,61.13189501953125,-0.009641647338867188,0.0011666491627693176,0.01446707546710968
1702338755152016100,61.23101611328125,-0.011617660522460938,-0.009355194866657257,0.006389424204826355
1702338755252693500,61.331693603515625,0.0010786056518554688,-0.0033531803637742996,-0.009065225720405579
1702338755350472000,61.429471923828125,-0.020650863647460938,0.0020324960350990295,-0.008833959698677063
1702338755449592800,61.5285927734375,-0.0020437240600585938,0.006179893389344215,0.00016321241855621338
1702338755548469800,61.6274697265625,-0.006112098693847656,0.01042420044541359,0.004547819495201111
1702338755647865600,61.72686547851563,0.0028772354125976562,-0.003670342266559601,-0.013427764177322388
1702338755746956300,61.825956298828125,0.009984016418457031,0.0012452788650989532,0.002372533082962036
1702338755846077200,61.9250771484375,0.018289566040039062,0.022482290863990784,0.0015332996845245361
1702338755945168000,62.02416796875,0.006461143493652344,-0.012060821056365967,-0.0027170032262802124
1702338756044289000,62.1232890625,-0.005795478820800781,0.010166484862565994,-0.004265427589416504
1702338756143440600,62.222440673828125,-0.008823394775390625,-0.002367369830608368,-0.000004127621650695801
1702338758620857600,64.69985766601563,-0.011132240295410156,-0.008342765271663666,-0.00044505298137664795
1702338758720222700,64.79922265625,-0.008074760437011719,0.004535708576440811,-0.00044080615043640137
1702338758819404800,64.89840478515625,-0.003954887390136719,-0.0007144063711166382,0.0008578747510910034
1702338758918495500,64.99749560546876,0.013461112976074219,-0.006317561492323875,0.007143467664718628
1702338759017616600,65.09661669921876,0.011602401733398438,-0.0026006028056144714,-0.010002434253692627
1702338759116737800,65.19573779296876,-0.004306793212890625,-0.0019017048180103302,0.00408191978931427
1702338759215797800,65.2947978515625,-0.014390945434570312,-0.007326055318117142,-0.0200706347823143
1702338759314827300,65.3938271484375,0.003970146179199219,0.0033553652465343475,-0.005128286778926849
1702338759414070500,65.49307055664063,-0.0050792694091796875,-0.005659790709614754,-0.008729837834835052
1702338759513191400,65.59219140625,0.0009613037109375,-0.015193598344922066,0.021789349615573883
1702338759612312600,65.6913125,0.004010200500488281,-0.007137661799788475,0.02127949893474579
1702338759711433700,65.79043383789063,-0.0002613067626953125,-0.004848543554544449,-0.007016733288764954
1702338759810555000,65.88955493164063,-0.0026178359985351562,0.007804473862051964,0.0029545575380325317
1702338759909767400,65.98876733398437,0.0002079010009765625,0.0020404718816280365,0.0032136142253875732
1702338760009254700,66.08825463867187,-0.0022287368774414062,0.001637674868106842,0.005505293607711792
1702338760107887600,66.1868876953125,0.005709648132324219,0.0016823820769786835,0.005401253700256348
1702338760207222300,66.28622216796875,-0.0064258575439453125,0.009311500936746597,-0.0050907135009765625
1702338760306313000,66.38531298828126,0.007021903991699219,0.002107786014676094,0.002086430788040161
1702338760405464600,66.48446459960938,0.0018634796142578125,-0.007093831896781921,0.006056681275367737
1702338760504036400,66.58303637695313,-0.016790390014648438,0.00040603242814540863,-0.002597495913505554
1702338760603828700,66.68282885742188,0.0011701583862304688,-0.0001360122114419937,-0.001027137041091919
1702338760702827800,66.78182788085938,0.0009870529174804688,0.0037780646234750748,-0.0013482272624969482
1702338760801949000,66.88094897460938,0.0020418167114257812,-0.01248527504503727,-0.0044016242027282715
1702338760902382300,66.98138232421876,-0.010672569274902344,-0.004462515935301781,0.006263747811317444
1702338761000435200,67.07943530273438,0.015050888061523438,0.006562555208802223,-0.002789318561553955
1702338761099312000,67.17831201171875,-0.01819133758544922,-0.0033824406564235687,-0.02031567692756653
1702338763576946700,69.65594677734374,-0.006671905517578125,-0.011168185621500015,0.005878731608390808
1702338763676190000,69.75518994140624,0.008408546447753906,0.004159141331911087,-0.001157999038696289
1702338763775707600,69.85470776367187,0.004609107971191406,-0.018134113401174545,-0.01533578336238861
1702338763874432000,69.95343188476562,0.0034332275390625,-0.005202241241931915,-0.0020475834608078003
1702338763973583600,70.05258349609375,-0.0031251907348632812,0.000756971538066864,-0.002887055277824402
1702338764072643800,70.15164379882812,0.006969451904296875,-0.0034260042011737823,0.014723435044288635
1702338764171765000,70.25076489257812,-0.006976127624511719,0.008614767342805862,0.0026781558990478516
1702338764270489300,70.3494892578125,-0.009400367736816406,0.00432204082608223,-0.0033882856369018555
1702338764370190000,70.44919018554687,-0.0046482086181640625,-0.0036573559045791626,0.016323432326316833
1702338764469097700,70.54809765625,0.000518798828125,0.0008862875401973724,-0.004370257258415222
1702338764568218600,70.64721850585937,-0.0031709671020507812,-0.007736770436167717,-0.003646939992904663
1702338764667370200,70.74637036132812,0.004136085510253906,0.0014480594545602798,0.0013098716735839844
1702338764766461000,70.8454609375,-0.008134841918945312,-0.0032702088356018066,0.0042958855628967285
1702338764865582000,70.94458203125,0.0016002655029296875,-0.0063934046775102615,-0.006831824779510498
1702338764964459000,71.043458984375,-0.0054473876953125,-0.013828033581376076,0.009062662720680237
1702338765063793700,71.14279370117187,0.0006389617919921875,-0.002464165911078453,0.010773137211799622
1702338765163586000,71.2425859375,0.008501052856445312,0.013767961412668228,-0.006600573658943176
1702338765262249500,71.34124951171874,0.0007009506225585938,0.011796344071626663,0.008438438177108765
1702338765361340200,71.44034008789062,-0.016180038452148438,-0.009026745334267616,-0.0045559704303741455
1702338765460461000,71.5394609375,0.0048732757568359375,-0.006811229512095451,-0.015374138951301575
1702338765559521300,71.63852124023437,-0.011900901794433594,-0.0010038185864686966,-0.003255993127822876
1702338765658733800,71.73773388671874,0.012419700622558594,0.00704759918153286,0.009261012077331543
1702338765757794000,71.8367939453125,0.0007791519165039062,0.006616363301873207,-0.0003361254930496216
1702338765856915000,71.9359150390625,0.001438140869140625,0.012227017432451248,-0.003457888960838318
1702338765956066600,72.03506665039062,-0.0051898956298828125,0.005310537293553352,-0.0020879432559013367
1702338766055187700,72.13418774414062,-0.014719963073730469,-0.00441974401473999,0.0006441250443458557
1702338766154278400,72.2332783203125,-0.008662223815917969,-0.004173027351498604,-0.0011209100484848022
1702338768632122600,74.71112255859374,-0.005947113037109375,-0.004350539296865463,0.0054645538330078125
1702338768731030000,74.81003002929687,-0.010942459106445312,0.002262389287352562,-0.004994750022888184
1702338768830425900,74.90942578125,0.0068511962890625,0.008566752076148987,0.00332602858543396
1702338768929577500,75.00857739257812,0.0132904052734375,0.004220739006996155,0.0047197043895721436
1702338769028668000,75.10766796875,-0.0013141632080078125,-0.016904383897781372,0.006776496767997742
1702338769127789000,75.2067890625,-0.0082855224609375,0.013779789209365845,0.006037533283233643
1702338769226910200,75.30591015625,0.008670806884765625,-0.00016463734209537506,0.009724393486976624
1702338769325909200,75.4049091796875,-0.011524200439453125,-0.009387966245412827,-0.006713569164276123
1702338769425762600,75.50476245117187,0.008339881896972656,-0.0019306540489196777,0.007192090153694153
1702338769524273400,75.6032734375,-0.0050144195556640625,0.006268708035349846,0.00396043062210083
1702338769623394600,75.70239453125,-0.051568031311035156,-0.02541564777493477,0.10707846283912659
1702338769722515700,75.801515625,-0.02859020233154297,0.016666900366544724,-0.013060465455055237
1702338769821667300,75.90066723632812,0.006503105163574219,-0.013222316280007362,-0.027316898107528687
1702338769920788200,75.99978833007812,0.01061248779296875,0.006089907139539719,-0.018839359283447266
1702338770019848400,76.09884838867187,0.012438774108886719,0.003715449944138527,-0.013707712292671204
1702338770119030500,76.19803051757812,0.004726409912109375,0.004952417686581612,-0.006098002195358276
1702338770219128000,76.29812817382812,0.0314483642578125,0.009661158546805382,0.00022214651107788086
1702338770317394700,76.39639477539062,-0.0017480850219726562,0.002395668998360634,-0.016934499144554138
1702338770416607500,76.495607421875,0.01609516143798828,-0.016789443790912628,-0.0025443434715270996
1702338770515728400,76.59472827148437,-0.0013380050659179688,0.011089997366070747,-0.017379015684127808
1702338770614483500,76.6934833984375,0.010054588317871094,-0.000016769394278526306,-0.009361550211906433
1702338770713940200,76.79294018554687,-0.006802558898925781,0.0003244113177061081,-0.01490052044391632
1702338770813061400,76.89206127929687,0.0022935867309570312,0.018949352204799652,-0.008358970284461975
1702338770912182300,76.99118237304687,0.009077072143554688,-0.00024362467229366302,-0.011370368301868439
1702338771011334000,77.090333984375,0.0051860809326171875,0.010883567854762077,0.011186927556991577
1702338771110455000,77.189455078125,0.008332252502441406,0.011765658855438232,-0.010353296995162964
1702338771209606700,77.28860668945312,-0.00264739990234375,-0.016347508877515793,0.02097739279270172
1702338773588329700,79.66732983398437,0.009982109069824219,0.01418275199830532,-0.004854649305343628
1702338773687512000,79.76651196289062,-0.008835792541503906,-0.0022361502051353455,0.0007153302431106567
1702338773786450000,79.86544995117187,-0.0029773712158203125,-0.008305268362164497,-0.00024312734603881836
1702338773885784600,79.96478466796874,-0.0048828125,-0.0026359055191278458,-0.006161481142044067
1702338773984905700,80.06390576171874,-0.016051292419433594,-0.003112761303782463,-0.00435107946395874
1702338774084027000,80.16302685546874,-0.016160011291503906,-0.0019069928675889969,0.005913332104682922
1702338774183148000,80.26214794921874,0.009275436401367188,-0.0020473599433898926,0.0021252036094665527
1702338774282269000,80.36126904296874,-0.00183868408203125,0.006977608427405357,-0.023030772805213928
1702338774381420500,80.46042065429687,0.001247406005859375,0.00332830473780632,0.00034669041633605957
1702338774481304600,80.5603046875,-0.004149436950683594,0.006292419508099556,0.011023178696632385
1702338774579662800,80.65866284179687,0.0017328262329101562,0.005921259522438049,0.0019777417182922363
1702338774678784000,80.75778393554687,-0.0013580322265625,-0.0023457277566194534,-0.006749346852302551
1702338774777874400,80.85687451171874,-0.0023241043090820312,0.00433257594704628,0.007772475481033325
1702338774877026000,80.95602612304687,-0.014293670654296875,-0.000483781099319458,0.0011197030544281006
1702338774976177700,81.055177734375,0.021201133728027344,0.007499784231185913,-0.0024278759956359863
1702338775075207200,81.15420727539062,-0.016249656677246094,0.0029881708323955536,-0.006954774260520935
1702338775174603000,81.25360302734374,0.008400917053222656,0.0028265193104743958,-0.003544911742210388
1702338775273754600,81.35275463867187,-0.00457000732421875,-0.005299922078847885,0.008853256702423096
1702338775372875800,81.45187573242187,0.007358551025390625,-0.014487160369753838,0.007195696234703064
1702338775471997000,81.55099682617187,0.010517120361328125,0.0093470998108387,0.017035827040672302
1702338775570995700,81.64999560546875,-0.00798797607421875,0.0025432631373405457,-0.006300479173660278
1702338775670574600,81.74957470703124,0.001712799072265625,0.006015762686729431,-0.003425583243370056
1702338775769360100,81.84836010742187,0.0030307769775390625,-0.005834965035319328,-0.0038259178400039673
1702338775868847400,81.94784741210937,-0.0038557052612304688,-0.004931030794978142,-0.005354627966880798
1702338775967602200,82.04660229492187,0.013162612915039062,0.0018311776220798492,0.0001112222671508789
1702338776066723300,82.14572338867187,0.03171539306640625,0.007832499220967293,-0.006099075078964233
1702338776165844500,82.24484448242187,-0.060593605041503906,0.005817670375108719,0.0016722232103347778
1702338776264874000,82.3438740234375,0.03209495544433594,0.0020051561295986176,0.006855010986328125
1702338778643553000,84.72255297851562,0.00021648406982421875,0.001513790339231491,-0.010378748178482056
1702338778742765600,84.821765625,-0.009799003601074219,0.008376192301511765,0.004406467080116272
1702338778841856300,84.92085620117187,-0.00019741058349609375,0.0013209860771894455,0.0071187615394592285
1702338778941038300,85.02003833007812,0.014195442199707031,-0.012568546459078789,-0.0005692541599273682
1702338779040159500,85.11915942382812,0.002643585205078125,0.017005283385515213,0.0009773969650268555
1702338779139280600,85.21828076171874,-0.004164695739746094,0.0024721696972846985,-0.0033998489379882812
1702338779238401800,85.31740185546874,-0.000293731689453125,0.001163199543952942,0.02341274917125702
1702338779337522700,85.41652270507812,0.010532379150390625,-0.009464658796787262,-0.00382310152053833
1702338779436460800,85.51546069335937,0.0012006759643554688,0.002781277522444725,-0.00016339123249053955
1702338779535765000,85.61476489257812,-0.0053806304931640625,-0.012941384688019753,-0.010287657380104065
1702338779634886100,85.71388623046874,0.005092620849609375,-0.004483919590711594,0.007215633988380432
1702338779734037800,85.81303784179687,-0.0009469985961914062,-0.008651558309793472,0.0018827319145202637
1702338779833097700,85.91209765625,-0.00039386749267578125,0.0019135922193527222,0.004246249794960022
1702338779932249300,86.01124926757812,-0.007922172546386719,-0.006079733371734619,0.004200845956802368
1702338780031401000,86.11040087890625,-0.005009651184082031,0.009626472368836403,0.00019054114818572998
1702338780130705200,86.209705078125,0.003009796142578125,0.009956547990441322,-0.004003763198852539
1702338780229673700,86.308673828125,0.0013151168823242188,0.00579221174120903,-0.005502045154571533
1702338780328855800,86.40785571289062,0.0070648193359375,0.006295148283243179,-0.0019057691097259521
1702338780428007400,86.50700732421875,-0.0016889572143554688,0.0011641699820756912,-0.005356118083000183
1702338780527128600,86.60612866210937,0.0021924972534179688,-0.0038877055048942566,-0.004227280616760254
1702338780626066400,86.70506640625,0.008213043212890625,0.0006445441395044327,-0.0036931633949279785
1702338780725248500,86.80424853515625,-0.0015382766723632812,-0.004339929670095444,-0.000024706125259399414
1702338780824461300,86.90346142578124,-0.009278297424316406,0.007498370483517647,-0.0009394586086273193
1702338780923582200,87.00258227539062,-0.012918472290039062,0.0005783475935459137,-0.008135393261909485
1702338781022703400,87.10170336914062,-0.0011835098266601562,-0.01076497696340084,-0.008175849914550781
1702338781121824500,87.20082446289062,0.0050106048583984375,-0.012263990938663483,-0.005005285143852234
1702338781220945700,87.29994555664062,-0.0062046051025390625,0.0036776289343833923,0.011635467410087585
1702338781319639600,87.3986396484375,-0.011562347412109375,-0.0030255187302827835,0.0195561945438385
1702338783599302700,89.678302734375,-0.0035495758056640625,0.010604135692119598,0.011309891939163208
1702338783698484700,89.77748461914062,0.004643440246582031,-0.0012662559747695923,-0.009125396609306335
1702338783797697300,89.876697265625,-0.007305145263671875,0.0016463007777929306,-0.004583775997161865
1702338783897184500,89.9761845703125,0.000698089599609375,0.001275729387998581,-0.008004501461982727
1702338783995756300,90.07475634765625,-0.0053958892822265625,0.0010312274098396301,0.0011325329542160034
1702338784094877400,90.17387744140625,0.005467414855957031,0.003574080765247345,0.003997698426246643
1702338784193968000,90.27296801757812,0.000972747802734375,0.008464766666293144,-0.004811972379684448
1702338784293058600,90.37205859375,-0.0027894973754882812,-0.0022473838180303574,0.005414530634880066
1702338784391813600,90.47081372070312,0.0016632080078125,-0.009923545643687248,-0.006003782153129578
1702338784491667000,90.5706669921875,-0.008594512939453125,-0.0051237959414720535,0.005256742238998413
1702338784590360800,90.66936083984375,0.0051860809326171875,-0.007120905444025993,0.003063589334487915
1702338784689482000,90.76848193359375,0.00511932373046875,-0.0064109452068805695,0.02117075026035309
1702338784788572700,90.86757275390624,0.012643814086914062,0.019668947905302048,-0.012429311871528625
1702338784887693600,90.96669360351562,0.0045566558837890625,-0.00006910227239131927,-0.0017715096473693848
1702338784986753800,91.06575390625,-0.0045795440673828125,0.0146153774112463,-0.011973455548286438
1702338785085752800,91.1647529296875,-0.0070037841796875,-0.0035058706998825073,0.0006203651428222656
1702338785185179100,91.26417919921874,-0.011827468872070312,0.011311981827020645,0.004767104983329773
1702338785284513800,91.363513671875,0.0048999786376953125,0.010079067200422287,-0.0009270310401916504
1702338785383360300,91.4623603515625,0.009267807006835938,-0.01644682139158249,0.003870442509651184
1702338785482481200,91.56148120117187,-0.006641387939453125,-0.0018610991537570953,-0.015305370092391968
1702338785582121200,91.66112133789062,0.004431724548339844,-0.0036493949592113495,-0.004917904734611511
1702338785680998100,91.759998046875,-0.00388336181640625,-0.0075237564742565155,0.006120070815086365
1702338785779844600,91.8588447265625,0.007941246032714844,0.004842355847358704,0.009712234139442444
1702338785879484400,91.958484375,-0.00376129150390625,0.00393308699131012,0.004358828067779541
1702338785978025700,92.05702563476562,0.0020503997802734375,-0.017162807285785675,0.0003003031015396118
1702338786077147000,92.15614697265624,-0.00028514862060546875,-0.0040349699556827545,-0.002717941999435425
1702338786176267800,92.25526782226562,0.014132499694824219,0.009340014308691025,0.0035533756017684937
1702338786275358500,92.3543583984375,-0.0065822601318359375,0.0029196906834840775,-0.0008068382740020752
1702338786374723600,92.4537236328125,0.0076847076416015625,0.005522735416889191,0.011563077569007874
1702338786473417500,92.55241748046875,-0.01314544677734375,0.0025347061455249786,0.0014642924070358276
1702338788554502700,94.63350268554687,-0.007084846496582031,-0.01749563403427601,0.011894524097442627
1702338788653746000,94.73274584960937,-0.0059051513671875,-0.015107953920960426,0.01016893982887268
1702338788752714500,94.83171459960937,-0.002132415771484375,0.006846822798252106,0.006702601909637451
1702338788852140800,94.93114086914062,-0.0029754638671875,0.007193181663751602,0.005842745304107666
1702338788950956500,95.02995654296875,-0.004481315612792969,0.008738037198781967,-0.004452645778656006
1702338789050047200,95.12904711914062,0.0010614395141601562,0.0004215408116579056,-0.002684652805328369
1702338789149168400,95.22816845703124,-0.009494781494140625,0.011421166360378265,0.008803367614746094
1702338789248258800,95.3272587890625,0.019225120544433594,0.0026258639991283417,0.007955238223075867
1702338789347013600,95.426013671875,-0.016706466674804688,-0.003471929579973221,-0.005458399653434753
1702338789446562000,95.52556201171875,-0.0015659332275390625,0.009382795542478561,0.013674840331077576
1702338789545530600,95.62453051757812,0.007481575012207031,0.016941189765930176,-0.01751212775707245
1702338789644621000,95.72362109375,0.002651214599609375,-0.009120680391788483,0.009980529546737671
1702338789743742200,95.8227421875,0.008576393127441406,-0.010086964815855026,-0.009382203221321106
1702338789842833000,95.9218330078125,-0.008012771606445312,-0.013306807726621628,0.005994275212287903
1702338789941923300,96.02092333984375,0.00409698486328125,0.011526037007570267,-0.013917028903961182
1702338790040761000,96.11976098632813,-0.026503562927246094,0.0015366747975349426,-0.015760526061058044
1702338790140126200,96.21912622070313,0.013829231262207031,-0.00039069727063179016,0.014193341135978699
1702338790239400000,96.31839990234376,-0.012424468994140625,0.007977638393640518,0.016076073050498962
1702338790338521000,96.41752099609376,0.017583847045898438,0.008968494832515717,0.007238417863845825
1702338790437611800,96.51661181640625,-0.005295753479003906,-0.00416170060634613,-0.002111390233039856
1702338790536702200,96.6157021484375,0.015544891357421875,-0.021092643961310387,-0.010341331362724304
1702338790635853800,96.71485375976563,-0.014980316162109375,-0.009274246171116829,0.003189593553543091
1702338790734944500,96.81394458007813,-0.03642559051513672,-0.0014095213264226913,0.03240734338760376
1702338790834065400,96.9130654296875,-0.0064220428466796875,-0.006839964538812637,0.02968418598175049
1702338790933125600,97.01212573242188,-0.0033540725708007812,0.014580579474568367,0.008608311414718628
1702338791032246800,97.11124682617188,0.007183074951171875,-0.015875162556767464,-0.032471999526023865
1702338791131337200,97.21033715820313,0.007984161376953125,0.0050549618899822235,0.01666402816772461
1702338791230519300,97.30951928710938,0.03857231140136719,-0.021829530596733093,0.005731701850891113
1702338791329579500,97.40857958984375,0.02615642547607422,-0.003893055021762848,-0.021334856748580933
1702338791428670000,97.507669921875,0.0058345794677734375,0.03300156444311142,-0.0035483241081237793
1702338793608693200,99.687693359375,0.028143882751464844,0.023335954174399376,-0.024353697896003723
1702338793707875300,99.78687524414063,0.015470504760742188,-0.01456185057759285,0.02143259346485138
1702338793806874400,99.88587426757813,-0.02900218963623047,0.0013058073818683624,0.00970458984375
1702338793906087000,99.9850869140625,-0.024173736572265625,0.039323944598436356,-0.027566447854042053
1702338794005208000,100.0842080078125,0.00579071044921875,-0.014781178906559944,-0.020722150802612305
1702338794104329200,100.1833291015625,0.026769638061523438,-0.0024315975606441498,0.02288830280303955
1702338794203419600,100.28241967773438,0.04027271270751953,0.025382373481988907,-0.0034686625003814697
1702338794302480000,100.38147998046875,0.005620002746582031,-0.008450526744127274,-0.002635389566421509
1702338794402028000,100.48102807617188,-0.007266998291015625,0.002843432128429413,0.004748821258544922
1702338794500722000,100.57972192382813,-0.010048866271972656,-0.020832909271121025,-0.008178174495697021
1702338794599843000,100.67884301757813,-0.020355224609375,0.026431724429130554,-0.00855495035648346
1702338794698964200,100.77796411132813,0.018960952758789062,0.018363837152719498,0.012651011347770691
1702338794798054700,100.8770546875,-0.01213836669921875,-0.0007569119334220886,0.0008174777030944824
1702338794897145300,100.97614526367188,0.02181529998779297,-0.01627153530716896,-0.015447661280632019
1702338794996419000,101.07541918945313,0.000213623046875,0.024689294397830963,-0.013044148683547974
1702338795095967500,101.17496752929688,0.022118568420410156,-0.00861676037311554,0.011335119605064392
1702338795194661000,101.2736611328125,-0.0035152435302734375,-0.010425910353660583,0.027228742837905884
1702338795293782300,101.3727822265625,-0.004935264587402344,0.011154402047395706,-0.014530226588249207
1702338795392873000,101.471873046875,-0.016080856323242188,0.03513332083821297,-0.039788007736206055
1702338795491993900,101.57099389648438,-0.04731941223144531,0.0020798780024051666,-0.0029669851064682007
1702338795590657300,101.6696572265625,0.01841449737548828,-0.042262300848960876,0.0061922818422317505
1702338795690480400,101.76948046875,-0.02455902099609375,-0.045284204185009,0.005417197942733765
1702338795789357300,101.868357421875,-0.010496139526367188,-0.015048086643218994,-0.011626645922660828
1702338795888447700,101.96744775390626,0.005229949951171875,0.0232731644064188,0.024066105484962463
1702338795987569000,102.06656884765626,0.012331962585449219,0.006169907748699188,-0.008050665259361267
1702338796086659600,102.16565966796875,0.00030517578125,0.02856963872909546,0.021481364965438843
1702338796185750000,102.26475,0.014214515686035156,-0.02260410599410534,-0.0057874321937561035
1702338796284627000,102.363626953125,-0.008096694946289062,-0.0009837709367275238,-0.023371189832687378
1702338796383961900,102.4629619140625,-0.0027589797973632812,-0.0024855099618434906,-0.023212984204292297
1702338796483723800,102.56272387695313,-0.008291244506835938,0.00581766851246357,0.022810742259025574
1702338798564229000,104.64322900390626,0.012909889221191406,0.0031907539814710617,0.017452940344810486
1702338798663441700,104.74244165039063,-0.0051975250244140625,0.004553632810711861,0.002408728003501892
1702338798762166000,104.841166015625,-0.010323524475097656,-0.008266255259513855,0.028201550245285034
1702338798861653500,104.94065356445313,0.027319908142089844,0.004986707121133804,-0.01344732940196991
1702338798960744000,105.03974389648438,0.0048198699951171875,0.0164638701826334,-0.009806349873542786
1702338799059895600,105.1388955078125,0.0159912109375,0.004068451002240181,0.0000690072774887085
1702338799159016700,105.2380166015625,0.021299362182617188,-0.0018600262701511383,0.0018840581178665161
1702338799258137900,105.33713793945313,-0.02614879608154297,-0.003221699967980385,0.01778477430343628
1702338799357014800,105.43601489257813,-0.0018329620361328125,-0.00393848679959774,-0.031665682792663574
1702338799456837600,105.53583764648438,0.014446258544921875,-0.0033787041902542114,0.015338107943534851
1702338799555470600,105.634470703125,-0.007910728454589844,0.0015000812709331512,0.014608979225158691
1702338799654561000,105.73356103515626,-0.022561073303222656,0.01711905561387539,-0.005950242280960083
1702338799753682200,105.83268212890626,-0.012814521789550781,0.01016554981470108,-0.008693978190422058
1702338799852803300,105.93180322265626,-0.006690025329589844,0.03274500370025635,0.004988506436347961
1702338799952229600,106.03122973632813,0.030330657958984375,0.0012573432177305222,-0.0015772879123687744
1702338800050862300,106.1298623046875,0.0053234100341796875,0.03843362629413605,-0.007049351930618286
1702338800150166500,106.22916650390626,-0.0035610198974609375,0.012811481952667236,-0.0470864400267601
1702338800249440300,106.32844018554688,0.016992568969726562,-0.017366807907819748,0.030854836106300354
1702338800348561400,106.4275615234375,-0.025758743286132812,-0.0360892154276371,0.06187678873538971
1702338800447682600,106.5266826171875,0.0044765472412109375,-0.0301763154566288,-0.03439806401729584
1702338800546651000,106.62565087890626,0.0017423629760742188,0.000697258859872818,0.014633402228355408
1702338800646229800,106.72522973632813,-0.006519317626953125,0.0028973426669836044,-0.011918589472770691
1702338800745015300,106.82401538085938,0.008524894714355469,0.002749469131231308,0.02822674810886383
1702338800844105700,106.92310571289063,0.0011167526245117188,0.006620360538363457,-0.002576664090156555
1702338800943227000,107.02222680664063,-0.009037017822265625,0.007843701168894768,-0.012299776077270508
1702338801042378500,107.12137841796876,0.0004367828369140625,0.020834630355238914,0.009955406188964844
1702338801141438500,107.2204384765625,-0.031561851501464844,-0.014661882072687149,-0.028925567865371704
1702338801240529200,107.31952905273438,-0.01633739471435547,-0.01388467662036419,0.004086807370185852
1702338801339955500,107.41895556640625,0.0063323974609375,-0.005263272672891617,0.0256088525056839
1702338801439076600,107.51807666015625,-0.012675285339355469,0.009486626833677292,0.027147486805915833
1702338801537862000,107.61686181640626,0.013372421264648438,-0.008591189980506897,-0.0026247650384902954
1702338801636921900,107.715921875,-0.016790390014648438,0.036639466881752014,0.017593100666999817
1702338803618779100,109.69777905273438,0.008448600769042969,0.02291065640747547,-0.0009327828884124756
1702338803717930800,109.7969306640625,-0.016907691955566406,-0.04242667555809021,0.023421481251716614
1702338803817265400,109.89626538085938,-0.008104324340820312,-0.007515205070376396,-0.03210628032684326
1702338803916172800,109.9951728515625,-0.0027637481689453125,0.04350125789642334,0.007426410913467407
1702338804015263500,110.09426342773438,-0.008284568786621094,-0.005323177203536034,0.003597661852836609
1702338804114384400,110.19338427734375,0.005076408386230469,-0.01051492802798748,-0.015128135681152344
1702338804213475000,110.29247509765625,0.0042266845703125,0.019497761502861977,0.021561920642852783
1702338804312931800,110.39193188476563,-0.004460334777832031,-0.013767879456281662,-0.006146445870399475
1702338804411747800,110.49074780273438,0.006262779235839844,0.019917557016015053,0.003118768334388733
1702338804510747000,110.58974682617188,0.0351409912109375,-0.027392128482460976,-0.007553189992904663
1702338804609868000,110.68886791992188,-0.010621070861816406,-0.02092626318335533,-0.000050008296966552734
1702338804708958500,110.78795849609375,-0.0008687973022460938,-0.0015762019902467728,-0.025726452469825745
1702338804808049200,110.88704907226563,-0.0007162094116210938,0.006570491939783096,-0.0220339372754097
1702338804907139600,110.9861396484375,0.011365890502929688,-0.008587684482336044,-0.008123710751533508
1702338805005986000,111.08498608398438,0.03142070770263672,-0.026790998876094818,-0.004943512380123138
1702338805105198600,111.18419848632813,0.018213272094726562,0.005519632250070572,0.01764347404241562
1702338805204441900,111.28344189453125,-0.012762069702148438,0.014901410788297653,0.03492377698421478
1702338805303593500,111.38259350585938,-0.0186309814453125,0.0031748227775096893,0.011818662285804749
1702338805402653400,111.4816533203125,-0.03748130798339844,0.014528002589941025,0.03646986186504364
1702338805501805000,111.58080517578125,0.016648292541503906,0.008444022387266159,-0.04117122292518616
1702338805600926200,111.67992626953125,0.007886886596679688,0.03287503123283386,0.019384577870368958
1702338805700871400,111.77987133789063,0.004572868347167969,0.011322412639856339,0.016412466764450073
1702338805799046400,111.87804638671875,0.011806488037109375,-0.005043234676122665,-0.008861184120178223
1702338805898136800,111.97713671875,-0.008108139038085938,-0.007865291088819504,0.051871612668037415
1702338805997227500,112.0762275390625,0.0012121200561523438,0.023282572627067566,-0.0063892751932144165
1702338806096318200,112.17531811523438,0.03294086456298828,0.013736840337514877,-0.023460865020751953
1702338806195408600,112.27440869140625,-0.014447212219238281,-0.009761728346347809,-0.01572728157043457
1702338806294682400,112.37368237304688,-0.022008895874023438,0.04049786180257797,-0.022103533148765564
1702338806393620200,112.4726201171875,-0.024313926696777344,-0.00027281418442726135,0.0013607293367385864
1702338806492741400,112.57174145507813,0.013654708862304688,-0.0342298187315464,0.0049413591623306274
1702338806591801600,112.67080151367188,0.019359588623046875,0.003728039562702179,0.008367002010345459
1702338806690953200,112.769953125,-0.00382232666015625,-0.030494412407279015,-0.012721538543701172
1702338806789646800,112.86864672851563,0.0027933120727539062,0.012392008677124977,-0.0007882416248321533
1702338808573765600,114.652765625,0.0482635498046875,-0.00748920813202858,-0.008478552103042603
1702338808672947700,114.75194775390625,-0.0016765594482421875,0.03998047485947609,-0.001247406005859375
1702338808772099300,114.85109936523438,0.012578010559082031,0.011706162244081497,-0.017170310020446777
1702338808871128800,114.95012890625,0.0024900436401367188,-0.001466110348701477,0.03382113575935364
1702338808970250000,115.04925,0.008063316345214844,-0.018443994224071503,0.012055084109306335
1702338809069340700,115.14834057617188,-0.041168212890625,-0.03258560597896576,-0.006081804633140564
1702338809168461600,115.24746166992188,-0.03431129455566406,-0.006879385560750961,0.029101088643074036
1702338809267552300,115.34655224609375,0.03324413299560547,0.036915265023708344,0.03491279482841492
1702338809366551300,115.44555126953125,0.019727706909179688,-0.011237513273954391,-0.039339110255241394
1702338809465703000,115.54470288085938,0.000476837158203125,0.02289509028196335,-0.0005979388952255249
1702338809564793300,115.64379345703125,-0.021554946899414062,-0.01252545416355133,-0.02618137001991272
1702338809663884000,115.74288403320313,0.0019903182983398438,0.005869152024388313,-0.00004264712333679199
1702338809762974700,115.841974609375,0.023593902587890625,-0.000353863462805748,0.0006459802389144897
1702338809862065200,115.94106518554688,0.005696296691894531,0.00560411810874939,0.0027888715267181396
1702338809960820000,116.03982006835938,-0.009236335754394531,0.008548617362976074,0.006985008716583252
1702338810060215800,116.1392158203125,0.0022859573364257812,-0.01847195066511631,-0.01030874252319336
1702338810159886300,116.23888623046875,-0.008074760437011719,0.010866271331906319,-0.010758832097053528
1702338810258580000,116.337580078125,-0.012698173522949219,0.0014172643423080444,0.03433270752429962
1702338810357945300,116.4369453125,-0.03452587127685547,0.01588311791419983,-0.029415637254714966
1702338810456822300,116.535822265625,-0.018808364868164062,0.023959841579198837,0.02762146294116974
1702338810555882200,116.63488232421875,0.01425933837890625,0.0027492232620716095,0.0048815906047821045
1702338810654973000,116.73397290039063,-0.0020761489868164062,-0.039715543389320374,0.03183355927467346
1702338810754460200,116.83346020507813,0.024207115173339844,-0.007258854806423187,-0.019960448145866394
1702338810853154000,116.93215405273438,0.014192581176757812,-0.012127025052905083,-0.002403736114501953
1702338810952244700,117.03124462890625,-0.00414276123046875,0.0045940205454826355,-0.004169166088104248
1702338811051304700,117.1303046875,-0.007437705993652344,-0.001416712999343872,-0.0012226253747940063
1702338811150242600,117.22924267578125,-0.004199028015136719,-0.01923074759542942,0.0027907341718673706
1702338811249546800,117.32854663085938,-0.013485908508300781,-0.02368011325597763,-0.01537296175956726
1702338811348576500,117.42757641601563,0.0027256011962890625,0.020924385637044907,-0.03093571960926056
1702338811447667000,117.5266669921875,0.0002651214599609375,0.016178641468286514,0.00483490526676178
1702338811546757600,117.62575756835938,-0.03569316864013672,0.004244210198521614,-0.0037010163068771362
1702338811645817600,117.72481762695313,0.012154579162597656,0.012265289202332497,0.006727203726768494
1702338813627171300,119.70617138671875,0.007411003112792969,0.0025509148836135864,-0.0025740712881088257
1702338813726445000,119.80544506835938,-0.01377105712890625,-0.00239565409719944,0.029601559042930603
1702338813825535700,119.90453564453125,-0.007481575012207031,-0.02361348271369934,0.0045463889837265015
1702338813924748300,120.00374829101563,-0.006239891052246094,0.04690229892730713,0.014027103781700134
1702338814023839000,120.1028388671875,-0.007208824157714844,0.03184349089860916,-0.017562538385391235
1702338814122960000,120.2019599609375,0.023921966552734375,-0.013461273163557053,-0.008391320705413818
1702338814221623300,120.30062329101563,0.003960609436035156,0.010634087026119232,-0.020700529217720032
1702338814321385200,120.40038525390625,-0.024621009826660156,0.014754284173250198,-0.011446073651313782
1702338814420231700,120.49923168945313,0.025356292724609375,-0.027277417480945587,0.006686806678771973
1702338814519322400,120.598322265625,-0.012773513793945312,-0.018847070634365082,-0.016971662640571594
1702338814618412800,120.69741284179688,0.013299942016601562,0.016553085297346115,0.011613458395004272
1702338814717534000,120.79653393554688,-0.00287628173828125,-0.008248910307884216,0.025477886199951172
1702338814816624400,120.89562426757813,0.019552230834960938,-0.0065499283373355865,0.019065961241722107
1702338814915593000,120.99459301757813,-0.02162933349609375,0.028790388256311417,-0.00380900502204895
1702338815014836200,121.09383618164063,-0.00007343292236328125,-0.019998397678136826,-0.008907720446586609
1702338815113926700,121.1929267578125,-0.000072479248046875,-0.016346989199519157,-0.006739020347595215
1702338815213394400,121.29239453125,0.000339508056640625,0.001520572230219841,0.008603528141975403
1702338815312271400,121.39127124023437,-0.0025196075439453125,-0.004398472607135773,0.00025394558906555176
1702338815411361800,121.49036181640625,0.000293731689453125,-0.000569583848118782,-0.0031507015228271484
1702338815510666000,121.589666015625,-0.00214385986328125,-0.015300916507840157,0.014750972390174866
1702338815610550000,121.68955004882812,-0.0045871734619140625,0.009900489822030067,-0.0026095062494277954
1702338815708633600,121.78763354492187,0.005768775939941406,0.006544763222336769,-0.0007552206516265869
1702338815807754800,121.88675463867187,0.007199287414550781,-0.009372886270284653,-0.007984444499015808
1702338815906845200,121.98584521484375,-0.011164665222167969,0.008045608177781105,-0.008412674069404602
1702338816005966300,122.08496630859375,-0.005709648132324219,0.003843190148472786,-0.008751645684242249
1702338816105057000,122.18405712890625,0.012799263000488281,0.0003093760460615158,0.008119195699691772
1702338816204391700,122.2833916015625,0.0030889511108398438,-0.008579274639487267,0.0026148855686187744
1702338816303238100,122.38223803710937,0.0009737014770507812,0.008331077173352242,0.0027983486652374268
1702338816402298000,122.48129809570312,0.0088043212890625,0.0024787969887256622,0.0029434561729431152
1702338816501388800,122.58038891601562,0.0021505355834960938,0.0024085883051156998,-0.0124807208776474
1702338816600418300,122.67941821289062,0.000591278076171875,-0.013226814568042755,-0.013794496655464172
1702338816699142700,122.778142578125,-0.00708770751953125,0.005599647760391235,-0.0016639083623886108
1702338816798904600,122.87790454101562,-0.0035076141357421875,0.0066008977591991425,0.007644250988960266
1702338816897781500,122.97678149414062,-0.0029516220092773438,-0.006153794005513191,-0.0012975484132766724
1702338816996872200,123.0758720703125,-0.0008611679077148438,-0.007220402359962463,0.003560885787010193
1702338817095962600,123.17496264648437,0.0024700164794921875,-0.005280030891299248,-0.0035547614097595215
1702338817195053300,123.27405322265625,0.011241912841796875,0.0014804434031248093,0.016817912459373474
1702338817294144000,123.37314404296875,0.004176139831542969,-0.0016277339309453964,0.010277584195137024
1702338817392990200,123.471990234375,-0.007700920104980469,0.016533304005861282,-0.007138729095458984
1702338817492294400,123.57129443359375,-0.0024347305297851562,0.006918400526046753,-0.014445662498474121
1702338817591385000,123.67038500976562,-0.0020294189453125,0.007698832079768181,0.0017542093992233276
1702338817690475800,123.76947583007812,-0.008067131042480469,-0.005608046427369118,0.012435168027877808
1702338817789566200,123.86856616210937,-0.008716583251953125,-0.000393938273191452,0.00860479474067688
1702338817888168400,123.96716845703125,0.0027151107788085938,-0.011212430894374847,-0.0005596578121185303
1702338817988022000,124.06702197265625,-0.005320549011230469,-0.0018267389386892319,-0.0006732791662216187
1702338818086807600,124.1658076171875,-0.010019302368164062,0.008752234280109406,-0.005887776613235474
1702338818185898000,124.26489794921875,0.0072154998779296875,0.006441669538617134,-0.010263949632644653
1702338818284988700,124.36398876953125,0.011198043823242188,-0.005109576508402824,0.007661178708076477
1702338818384079000,124.4630791015625,0.01731109619140625,-0.0059174466878175735,-0.0005320459604263306
1702338818483169800,124.56216967773437,-0.001140594482421875,0.023284252732992172,0.017766505479812622
1702338818641433900,124.72043383789062,-0.0031251907348632812,0.007067620754241943,0.012290596961975098
1702338819137344500,125.21634448242187,0.008152008056640625,0.006367119029164314,-0.018515974283218384
1702338819235946800,125.31494677734375,0.00479888916015625,0.001217784360051155,0.024301812052726746
1702338819335312100,125.41431201171875,0.019959449768066406,-0.01304309256374836,-0.021817877888679504
1702338819434402600,125.51340258789062,-0.023271560668945312,-0.002986552193760872,-0.009954392910003662
1702338819533493200,125.6124931640625,-0.04533195495605469,-0.023697515949606895,0.011485844850540161
1702338819632584000,125.711583984375,0.024068832397460938,-0.015851018950343132,0.009826809167861938
1702338819731674400,125.81067431640625,-0.011857032775878906,0.025026388466358185,0.006022050976753235
1702338819830337800,125.909337890625,0.0040836334228515625,0.014777537435293198,-0.0071160197257995605
1702338819929855500,126.00885546875,-0.008566856384277344,0.0006619952619075775,-0.011661648750305176
1702338820028946200,126.1079462890625,0.008825302124023438,0.023236749693751335,-0.012309879064559937
1702338820129196300,126.2081962890625,0.0013608932495117188,0.017701556906104088,0.005970895290374756
1702338820227127300,126.30612719726562,-0.02081584930419922,0.006683841347694397,0.01918978989124298
1702338820326248400,126.40524853515625,-0.02930927276611328,0.005474064499139786,-0.014111891388893127
1702338820425186300,126.50418627929687,0.01946735382080078,-0.019483348354697227,0.0004742443561553955
1702338820524948200,126.6039482421875,-0.019689559936523438,-0.020331203937530518,0.006629675626754761
1702338820623520000,126.70252001953125,0.01151275634765625,-0.025023341178894043,-0.038103312253952026
1702338820722580200,126.80158032226562,-0.002376556396484375,0.027771824970841408,-0.0015768706798553467
1702338820821854000,126.90085400390625,-0.00197601318359375,-0.001322820782661438,0.008496895432472229
1702338820920853000,126.99985302734375,-0.011631965637207031,0.009208900853991508,0.007335573434829712
1702338821019943400,127.098943359375,0.004277229309082031,0.004011064767837524,-0.02556104212999344
1702338821118942500,127.1979423828125,0.01951885223388672,-0.0023171603679656982,0.006890207529067993
1702338821218063600,127.29706372070312,0.014271736145019531,-0.013986809179186821,-0.004411742091178894
1702338821317184800,127.39618481445312,0.0019130706787109375,0.004632478579878807,0.01212376356124878
1702338821416275200,127.49527514648437,-0.000392913818359375,-0.004220934584736824,0.00037658214569091797
1702338821515335200,127.59433520507812,-0.008310317993164062,-0.04551698639988899,0.022091522812843323
1702338821614639600,127.6936396484375,0.02698993682861328,0.0018748752772808075,-0.007701188325881958
1702338821713455400,127.79245532226562,-0.0034332275390625,-0.018484104424715042,-0.020549550652503967
1702338823595993300,129.67499340820314,0.0102996826171875,-0.007295314222574234,-0.025277987122535706
1702338823695480600,129.77448046875,-0.013367652893066406,0.003799945116043091,-0.03877466917037964
1702338823794571000,129.87357104492187,0.024771690368652344,-0.0009161569178104401,-0.010536819696426392
1702338823893661700,129.97266162109375,-0.00330352783203125,0.04103292524814606,-0.01250407099723816
1702338823992813300,130.07181323242187,0.019202232360839844,0.012150835245847702,-0.011017605662345886
1702338824091842800,130.1708427734375,0.00203704833984375,-0.003932084888219833,-0.008926033973693848
1702338824190841900,130.269841796875,-0.02824115753173828,-0.0005363859236240387,0.03471498191356659
1702338824290085000,130.36908520507814,-0.015547752380371094,-0.00012196600437164307,-0.019127652049064636
1702338824389175600,130.46817553710937,-0.012952804565429688,0.0093454048037529,0.023791208863258362
1702338824488266200,130.5672663574219,-0.0028095245361328125,0.020504068583250046,-0.0042867958545684814
1702338824587417900,130.66641796875,0.0116119384765625,-0.020933076739311218,0.003099963068962097
1702338824686508300,130.76550830078125,-0.01226806640625,-0.02152012661099434,0.00640520453453064
1702338824785293800,130.8642939453125,0.0017404556274414062,-0.020449986681342125,0.013564810156822205
1702338824885330400,130.96433032226562,-0.008518218994140625,0.0216207392513752,-0.014809474349021912
1702338824983841300,131.06284130859376,0.034796714782714844,-0.015996448695659637,0.029811903834342957
1702338825083481000,131.1624812011719,0.0030651092529296875,0.024907175451517105,-0.005676969885826111
1702338825182419000,131.2614189453125,-0.0034379959106445312,0.0007033534348011017,0.015476465225219727
1702338825281296000,131.3602958984375,-0.00684356689453125,-0.02902904525399208,-0.0012323707342147827
1702338825380081400,131.45908129882812,0.012248039245605469,0.011622626334428787,-0.01873961091041565
1702338825479935000,131.55893505859376,-0.01572418212890625,0.007599201053380966,0.015712320804595947
1702338825578598100,131.65759814453125,-0.005116462707519531,-0.023271124809980392,-0.030970901250839233
1702338825677688800,131.75668872070312,-0.018242835998535156,0.004887063056230545,0.024328649044036865
1702338825776810000,131.85581005859376,0.014720916748046875,0.03390277922153473,-0.03891126811504364
1702338825875870000,131.95486987304687,-0.0036954879760742188,0.00465146079659462,0.015716269612312317
1702338825974991000,132.0539912109375,-0.003082275390625,-0.00021239370107650757,0.035299405455589294
1702338826073837600,132.1528376464844,0.02135753631591797,-0.03178277611732483,-0.02219495177268982
1702338826173219300,132.25221923828124,-0.010118484497070312,-0.004207231104373932,-0.013117998838424683
1702338826272309800,132.35130981445312,-0.0024471282958984375,0.006379891186952591,-0.0035430043935775757
1702338826371400400,132.450400390625,-0.012014389038085938,-0.001924833282828331,0.011264607310295105
1702338826470521600,132.549521484375,0.0019550323486328125,0.0027248430997133255,-0.006742820143699646
1702338826569551000,132.64855102539062,-0.006348609924316406,-0.0069676656275987625,-0.013349324464797974
1702338826669038300,132.74803833007812,0.008667945861816406,-0.007898997515439987,0.031029939651489258
1702338828551057400,134.63005737304687,0.0003376007080078125,-0.019494878128170967,-0.04945504665374756
1702338828650392000,134.72939208984374,-0.013684272766113281,0.025983216241002083,-0.00305117666721344
1702338828749665800,134.82866577148437,0.0025606155395507812,-0.002386929467320442,-0.014678955078125
1702338828848787000,134.92778686523437,-0.021795272827148438,0.010319072753190994,0.025502294301986694
1702338828947877600,135.02687768554688,0.007765769958496094,0.0009436346590518951,-0.004858538508415222
1702338829046968000,135.12596801757812,0.006473541259765625,0.017080212011933327,0.007745116949081421
1702338829146424800,135.2254248046875,0.01337432861328125,-0.018932869657874107,0.010703086853027344
1702338829245179600,135.3241796875,0.00115966796875,-0.005473434925079346,-0.02873264253139496
1702338829344270300,135.42327026367187,-0.020978927612304688,0.007741248235106468,0.02976265549659729
1702338829443788000,135.5227880859375,-0.0095062255859375,-0.025580141693353653,0.013508796691894531
1702338829542482000,135.62148193359374,0.01203155517578125,0.01251928135752678,0.003101453185081482
1702338829641572600,135.72057250976562,0.0040340423583984375,0.010336995124816895,0.0028397589921951294
1702338829740693800,135.81969384765625,0.021326065063476562,0.02246815711259842,0.00461992621421814
1702338829840181000,135.91918090820312,0.027742385864257812,0.0011004358530044556,-0.0022977590560913086
1702338829938844400,136.01784448242188,-0.0008182525634765625,-0.04024602845311165,0.019439145922660828
1702338830037934800,136.11693481445312,0.007293701171875,0.02821481041610241,-0.005066245794296265
1702338830137056000,136.21605590820312,-0.0019006729125976562,-0.0056756045669317245,0.007146403193473816
1702338830236299300,136.31529931640625,-0.025531768798828125,0.003159821033477783,0.016193032264709473
1702338830334962400,136.41396240234374,-0.02727031707763672,-0.00900338962674141,0.00261862576007843
1702338830435426300,136.51442626953124,0.0111846923828125,0.01391575112938881,0.01042640209197998
1702338830533510000,136.61251000976563,0.0073261260986328125,0.017899654805660248,-0.0034583359956741333
1702338830632692000,136.71169189453124,0.0041046142578125,-0.013102980330586433,-0.018584594130516052
1702338830731752000,136.810751953125,-0.01853179931640625,0.009355530142784119,-0.025199994444847107
1702338830830873000,136.909873046875,0.010498046875,0.022094281390309334,-0.03115348517894745
1702338830929994200,137.008994140625,-0.019186019897460938,-0.005207359790802002,0.01976008713245392
1702338831028840700,137.1078408203125,0.021920204162597656,-0.00044824741780757904,0.007165297865867615
1702338831129396000,137.20839599609374,0.010277748107910156,-0.018425270915031433,-0.009728044271469116
1702338831227266000,137.30626611328125,-0.003406524658203125,-0.016615934669971466,-0.0038617849349975586
1702338831326356500,137.4053564453125,0.0071258544921875,0.004851814359426498,-0.014928221702575684
1702338831425447200,137.504447265625,0.02388477325439453,-0.006447844207286835,-0.009775102138519287
1702338831524598800,137.60359887695313,0.007939338684082031,0.001347942277789116,-0.004324004054069519
1702338831623964000,137.7029638671875,0.01658153533935547,0.015007100999355316,-0.003347828984260559
1702338833605073700,139.68407373046875,0.0252685546875,0.018293581902980804,0.003642067313194275
1702338833704561000,139.78356079101562,-0.012866020202636719,-0.03032018430531025,0.013690054416656494
1702338833803651300,139.8826513671875,0.039147377014160156,0.018099788576364517,-0.012265846133232117
1702338833902803000,139.98180297851562,-0.03918266296386719,-0.02249152958393097,0.02266646921634674
1702338834001863200,140.08086328125,0.011233329772949219,-0.0008901581168174744,-0.008365005254745483
1702338834101258800,140.1802587890625,-0.00859832763671875,-0.0323452390730381,-0.010706111788749695
1702338834200074800,140.27907470703124,-0.01914691925048828,-0.011084824800491333,0.017273858189582825
1702338834299196000,140.37819580078124,-0.013952255249023438,0.028992468491196632,0.025776997208595276
1702338834398317000,140.47731713867188,0.014314651489257812,-0.029385633766651154,0.013324722647666931
1702338834497407500,140.57640747070312,0.02189350128173828,0.01749739982187748,0.005358114838600159
1702338834596681200,140.67568115234374,-0.001705169677734375,0.03502165153622627,0.01825636625289917
1702338834695558100,140.77455810546874,0.01055908203125,-0.0006797704845666885,-0.03285491466522217
1702338834795045400,140.87404541015624,-0.005167961120605469,-0.01603388600051403,-0.02998720109462738
1702338834893800400,140.97280053710938,-0.010286331176757812,-0.021272677928209305,0.003189459443092346
1702338834992891000,141.07189086914062,-0.01456451416015625,0.020252712070941925,-0.01904602348804474
1702338835091981600,141.17098168945313,-0.0041561126708984375,-0.012560002505779266,0.01429244875907898
1702338835191285800,141.27028564453124,-0.005462646484375,0.007551055401563644,-0.0018059760332107544
1702338835289796400,141.36879638671874,-0.010533332824707031,-0.005617285147309303,0.00587618350982666
1702338835389589000,141.46858911132813,0.013172149658203125,0.003373490646481514,-0.007264479994773865
1702338835488526800,141.56752685546874,0.016968727111816406,-0.0015323925763368607,-0.010228961706161499
1702338835587678500,141.66667846679687,-0.03375053405761719,0.0012138709425926208,0.001700177788734436
1702338835686708000,141.7657080078125,0.025735855102539062,0.03258943185210228,0.007648840546607971
1702338835786286800,141.86528686523437,0.0014810562133789062,0.0028552189469337463,0.005479559302330017
1702338835884950300,141.9639501953125,0.0032329559326171875,0.002447802573442459,0.006381765007972717
1702338835984254500,142.06325439453124,-0.019245147705078125,0.002114551141858101,0.014676868915557861
1702338836083467000,142.16246704101562,0.02984905242919922,0.003827126696705818,-0.013464570045471191
1702338836182130400,142.26113037109374,0.03484630584716797,0.007244741544127464,0.03933212161064148
1702338836281037800,142.36003784179687,-0.0108795166015625,-0.019834257662296295,-0.010873407125473022
1702338836380494600,142.45949462890624,-0.019033432006835938,-0.010079625993967056,0.022687643766403198
1702338836479982000,142.55898217773438,-0.009869575500488281,-0.0003517176955938339,0.012735739350318909
1702338836578737000,142.65773681640624,-0.004246711730957031,0.01930750533938408,-0.06496793031692505
1702338836677827600,142.75682763671875,-0.021490097045898438,0.007753817364573479,-0.0024404972791671753
1702338838560434700,144.6394345703125,0.009238243103027344,-0.00910148210823536,0.005509078502655029
1702338838660044000,144.7390439453125,0.01568603515625,-0.001520443707704544,-0.03948742151260376
1702338838759104000,144.83810400390624,-0.01287078857421875,-0.01358395628631115,0.011231407523155212
1702338838858164000,144.9371640625,0.009227752685546875,0.02665393427014351,0.0012050867080688477
1702338838957285000,145.03628515625,0.009688377380371094,0.010302025824785233,-0.013151958584785461
1702338839056101000,145.13510107421874,0.010066032409667969,-0.04920276999473572,-0.03465959429740906
1702338839155954700,145.23495458984374,-0.02354907989501953,-0.012990903109312057,-0.0002718418836593628
1702338839254648600,145.33364868164062,0.02626323699951172,-0.0007824860513210297,-0.019935108721256256
1702338839353769500,145.43276953125,-0.04595470428466797,-0.016535717993974686,0.027525335550308228
1702338839452890600,145.531890625,0.009587287902832031,0.0046574994921684265,0.03514721989631653
1702338839552011800,145.63101171875,0.027942657470703125,0.011935317888855934,0.033099979162216187
1702338839651133000,145.7301328125,-0.024598121643066406,0.005601679906249046,-0.02247045934200287
1702338839750132000,145.82913208007812,-0.016503334045410156,0.0007498785853385925,-0.014928042888641357
1702338839849375000,145.928375,-0.017742156982421875,0.0202178992331028,-0.0046367347240448
1702338839948496100,146.02749609375,0.013141632080078125,0.006959587335586548,0.024740219116210938
1702338840047617300,146.1266171875,-0.010993003845214844,-0.014070522040128708,-0.003510773181915283
1702338840146738400,146.22573852539062,-0.0031757354736328125,-0.019642358645796776,-0.008670568466186523
1702338840246103600,146.325103515625,0.005329132080078125,0.013217825442552567,-0.01140226423740387
1702338840345316000,146.42431616210936,-0.011507034301757812,0.008240452036261559,0.021817833185195923
1702338840445108700,146.5241086425781,0.008356094360351562,-0.013437461107969284,0.008873134851455688
1702338840543405800,146.62240576171874,0.016946792602539062,-0.0007384326308965683,-0.006749778985977173
1702338840642496300,146.7214963378906,-0.007826805114746094,0.0005976445972919464,0.00658474862575531
1702338840741861600,146.8208615722656,-0.012501716613769531,0.01810031197965145,0.004876971244812012
1702338840840708000,146.9197080078125,0.03946113586425781,0.015151787549257278,-0.035594016313552856
1702338840939768000,147.01876806640624,-0.022980690002441406,0.019103892147541046,-0.01031966507434845
1702338841038889200,147.11788916015624,0.006793022155761719,-0.004382438957691193,-0.018751755356788635
1702338841137979600,147.2169797363281,-0.004313468933105469,-0.0031637772917747498,0.008560150861740112
1702338841238382600,147.31738256835936,0.014357566833496094,0.002990707755088806,0.03530469536781311
1702338841336191500,147.41519140625,0.0099639892578125,-0.0074159130454063416,0.01769508421421051
1702338841435282000,147.51428198242186,0.00031375885009765625,0.005872860550880432,-0.018936336040496826
1702338841534006300,147.61300634765624,-0.03364849090576172,-0.018975213170051575,0.015966415405273438
1702338841633524200,147.71252416992186,-0.026035308837890625,-0.00976140983402729,-0.0032640695571899414
1702338841732645400,147.81164526367186,0.00024700164794921875,0.015883641317486763,0.023450151085853577
1702338841831797000,147.910796875,-0.011770248413085938,-0.004649864509701729,-0.0005906224250793457
1702338841930857000,148.00985693359374,0.020132064819335938,-0.01734253019094467,-0.01506321132183075
1702338843615091500,149.69409155273436,-0.02351665496826172,0.0018149316310882568,-0.0004775524139404297
1702338843714579000,149.79357885742186,-0.009614944458007812,0.01796073466539383,-0.014556080102920532
1702338843813700000,149.8927001953125,-0.02795886993408203,-0.003350239247083664,0.013630196452140808
1702338843912790500,149.99179052734374,0.0006551742553710938,-0.0011464767158031464,0.026708409190177917
1702338844011942100,150.09094213867186,0.00054168701171875,-0.022828012704849243,-0.009416431188583374
1702338844110819000,150.18981909179686,0.012417793273925781,-0.02453181892633438,-0.0140170156955719
1702338844210092800,150.2890927734375,0.03030109405517578,-0.0004176478832960129,-0.019836604595184326
1702338844309214000,150.3882138671875,0.01128387451171875,0.00812576524913311,0.015628919005393982
1702338844408304400,150.48730444335936,0.029351234436035156,0.018385525792837143,0.0032853931188583374
1702338844507395000,150.58639501953124,0.010493278503417969,0.01539590209722519,-0.01297713816165924
1702338844606546700,150.68554663085936,-0.019195556640625,0.0049131885170936584,0.017366915941238403
1702338844705332000,150.78433203125,-0.00403594970703125,0.004575330764055252,0.0027382075786590576
1702338844805399300,150.8843994140625,-0.003360748291015625,-0.00009187310934066772,-0.003879338502883911
1702338844903849000,150.9828488769531,-0.0047817230224609375,0.007970280945301056,0.006554454565048218
1702338845002939400,151.081939453125,-0.005977630615234375,0.004287969321012497,-0.012673810124397278
1702338845102030000,151.18103002929686,0.020948410034179688,0.003647889941930771,0.011202722787857056
1702338845201303800,151.2803037109375,-0.024443626403808594,0.008664656430482864,0.03951524198055267
1702338845300150300,151.379150390625,-0.018370628356933594,-0.002674020826816559,-0.021129444241523743
1702338845399881700,151.4788818359375,0.018613815307617188,-0.006580863147974014,0.0065819621086120605
1702338845498514400,151.57751440429686,-0.012422561645507812,0.004559338092803955,0.01129189133644104
1702338845597666000,151.676666015625,-0.01435089111328125,0.004288088530302048,-0.004321575164794922
1702338845696756700,151.7757568359375,-0.021925926208496094,-0.0003573410212993622,0.000212058424949646
1702338845795816700,151.8748166503906,0.045563697814941406,-0.004209626466035843,-0.017107978463172913
1702338845894968300,151.97396826171874,-0.03186988830566406,0.014928922057151794,-0.008022740483283997
1702338845993906200,152.07290625,-0.016588211059570312,0.012915916740894318,-0.012853637337684631
1702338846092874800,152.17187475585936,0.006142616271972656,-0.013105910271406174,-0.006901293992996216
1702338846192240000,152.271240234375,-0.01883220672607422,0.0026881657540798187,0.028831690549850464
1702338846291300000,152.3703000488281,0.030200958251953125,0.017841309309005737,0.04181279242038727
1702338846390390500,152.469390625,0.0052089691162109375,0.008540414273738861,-0.031180649995803833
1702338846489481200,152.56848120117186,0.010321617126464844,-0.01319127157330513,0.014588415622711182
1702338846588724500,152.66772436523436,0.01259613037109375,-0.024892471730709076,0.03192457556724548
1702338846687754000,152.76675390625,0.0065135955810546875,-0.020669028162956238,-0.003937363624572754
1702338846786844400,152.86584448242186,-0.024496078491210938,0.008790500462055206,0.006943628191947937
1702338846885904600,152.9649045410156,0.005513191223144531,0.002556178718805313,-0.015918120741844177
1702338848570169600,154.64916967773436,0.0059795379638671875,-0.017208073288202286,-0.008059874176979065
1702338848669290800,154.74829077148436,-0.0009889602661132812,0.004833631217479706,0.0010733753442764282
1702338848768778000,154.84777807617186,-0.01080322265625,-0.009858861565589905,0.0007110089063644409
1702338848867868700,154.94686865234374,-0.014988899230957031,0.0053950026631355286,0.04630063474178314
1702338848967020300,155.04602026367186,-0.0025119781494140625,0.012130195274949074,0.0009215176105499268
1702338849066446600,155.1454465332031,-0.0020914077758789062,-0.03970010578632355,-0.007400766015052795
1702338849165048800,155.244048828125,-0.017699241638183594,0.0013148244470357895,-0.012325316667556763
1702338849264292000,155.3432919921875,0.01716327667236328,-0.01679067313671112,-0.012023448944091797
1702338849363413000,155.4424130859375,0.010313034057617188,-0.002365073189139366,0.0077523887157440186
1702338849462503700,155.54150366210936,-0.02331829071044922,0.02716599963605404,-0.023654237389564514
1702338849561624800,155.64062475585936,0.018476486206054688,0.020284712314605713,-0.01590082049369812
1702338849660684800,155.7396848144531,-0.012529373168945312,-0.0014076679944992065,-0.005872130393981934
1702338849760202800,155.83920263671874,0.009519577026367188,0.02640461176633835,-0.019477486610412598
1702338849858927000,155.9379270019531,0.013924598693847656,0.010088052600622177,-0.02637965977191925
1702338849958078700,156.03707861328124,0.011609077453613281,0.021603941917419434,-0.008204177021980286
1702338850057178400,156.13617846679688,0.011662483215332031,-0.00829365849494934,0.013784319162368774
1702338850156330000,156.235330078125,0.033664703369140625,-0.0008592680096626282,-0.012636452913284302
1702338850255023900,156.33402392578125,-0.005863189697265625,0.0017725266516208649,-0.004300788044929504
1702338850354389000,156.43338891601562,0.02304363250732422,-0.023246292024850845,0.008210629224777222
1702338850453876200,156.53287622070312,-0.024690628051757812,-0.024870363995432854,0.008642047643661499
1702338850552875300,156.63187524414062,0.02930927276611328,-0.0042791664600372314,-0.006942823529243469
1702338850651996400,156.73099633789062,-0.01748371124267578,-0.013040401041507721,-0.019078746438026428
1702338850752277200,156.83127734375,0.0073795318603515625,0.021532494574785233,-0.006113007664680481
1702338850850177500,156.92917749023437,-0.01979541778564453,-0.005522632971405983,0.023083612322807312
1702338850948993500,157.02799365234375,0.00345611572265625,0.04776474088430405,-0.006885960698127747
1702338851048389400,157.12738940429688,-0.021060943603515625,-0.002013690769672394,-0.003926977515220642
1702338851147479800,157.22647973632812,0.026340484619140625,0.05225426331162453,0.02490827441215515
1702338851246601000,157.32560107421875,0.005988121032714844,0.009701278060674667,-0.012923464179039001
1702338851345691400,157.42469140625,-0.020954132080078125,-0.033744893968105316,0.013419046998023987
1702338851444721200,157.52372119140625,-0.00347900390625,-0.008095383644104004,-0.019346043467521667
1702338851544055800,157.62305590820313,0.019057273864746094,-0.025053005665540695,-0.002770364284515381
1702338851642719000,157.72171899414062,0.007904052734375,0.003140285611152649,0.013043001294136047
1702338851742114800,157.82111474609374,-0.0033855438232421875,0.020212791860103607,0.016248568892478943
1702338851841236000,157.92023608398438,-0.002819061279296875,-0.04294001683592796,0.0013935565948486328
1702338851940296000,158.0192958984375,-0.012320518493652344,0.011733610183000565,0.015367463231086731
1702338853624835800,159.7038359375,0.020931243896484375,0.009563956409692764,0.008997365832328796
1702338853724048400,159.80304833984374,-0.014477729797363281,-0.037846095860004425,0.007741302251815796
1702338853823139000,159.90213916015625,0.005885124206542969,0.004878133535385132,0.04659491777420044
1702338853922260200,160.00126025390625,-0.01704692840576172,-0.02378980815410614,0.02111676335334778
1702338854021381000,160.10038110351562,0.01970958709716797,-0.011771388351917267,-0.01250457763671875
1702338854121173800,160.200173828125,-0.019481658935546875,0.018189407885074615,0.005353495478630066
1702338854219562200,160.29856225585937,-0.0022630691528320312,0.03719270974397659,-0.006127104163169861
1702338854318683400,160.39768334960937,0.0120849609375,-0.01481609232723713,-0.0008687078952789307
1702338854417774000,160.49677416992188,-0.015874862670898438,0.01008920930325985,0.011497437953948975
1702338854516864500,160.59586450195312,0.016692161560058594,-0.0010787658393383026,-0.04761989414691925
1702338854615955200,160.694955078125,-0.004046440124511719,-0.015218561515212059,-0.012354820966720581
1702338854715076400,160.79407641601563,-0.0013780593872070312,-0.0010745078325271606,0.0318467915058136
1702338854814166800,160.89316674804687,-0.005124092102050781,-0.017211463302373886,-0.003575444221496582
1702338854913257500,160.99225756835938,-0.000293731689453125,0.003686327487230301,-0.002736330032348633
1702338855012348000,161.09134790039062,0.005741119384765625,0.002720588818192482,-0.027964308857917786
1702338855111469000,161.19046899414062,-0.009174346923828125,0.0039057470858097076,0.008430823683738708
1702338855210315500,161.2893154296875,-0.005646705627441406,0.02926919423043728,-0.0011421442031860352
1702338855309558800,161.38855883789063,0.0272064208984375,-0.005466911941766739,-0.03262464702129364
1702338855408740900,161.48774096679688,0.03662395477294922,0.0015079807490110397,0.00939185917377472
1702338855508106000,161.58710595703124,-0.0033884048461914062,-0.015066253021359444,-0.006316289305686951
1702338855607288000,161.6862880859375,-0.010807037353515625,0.011450380086898804,0.0025386065244674683
1702338855706317800,161.78531787109375,-0.03892993927001953,-0.014320291578769684,-0.007621824741363525
1702338855805408300,161.884408203125,-0.012493133544921875,-0.02826186642050743,0.01983274519443512
1702338855904132600,161.98313256835937,0.01152801513671875,0.00004195608198642731,0.041137516498565674
1702338856004169200,162.08316918945312,0.005616188049316406,0.0021002404391765594,-0.009796813130378723
1702338856102741000,162.18174096679687,0.010679244995117188,0.0313396081328392,0.017169177532196045
1702338856201862100,162.28086206054687,-0.0010805130004882812,-0.00374809093773365,-0.017803147435188293
1702338856300983300,162.3799833984375,0.00708770751953125,-0.00704139843583107,-0.019011691212654114
1702338856400043300,162.47904321289062,0.00989532470703125,-0.0077895428985357285,-0.04352346062660217
1702338856498859300,162.577859375,-0.011694908142089844,0.011130990460515022,-0.0069583505392074585
1702338856598712800,162.677712890625,-0.001773834228515625,-0.02144656516611576,0.026376739144325256
1702338856697345500,162.77634545898437,0.004512786865234375,0.024106215685606003,0.013812050223350525
1702338856796436200,162.87543627929688,-0.0022325515747070312,-0.003786558285355568,-0.002207249402999878
1702338856895526700,162.97452661132812,0.0021409988403320312,-0.005083305761218071,0.03945071995258331
1702338856994556200,163.07355615234374,-0.02215576171875,0.05127871781587601,-0.007207825779914856
1702338858579761400,164.65876147460938,-0.014352798461914062,-0.00094648078083992,0.00041997432708740234
1702338858679248600,164.75824853515624,-0.0000057220458984375,0.0012826025485992432,-0.014936402440071106
1702338858778064600,164.85706469726563,0.013978004455566406,-0.004858121275901794,0.02485404908657074
1702338858877155000,164.95615502929687,-0.004326820373535156,-0.009969286620616913,-0.008963614702224731
1702338858976154000,165.05515405273437,0.008366584777832031,0.012131314724683762,0.01870046555995941
1702338859076007700,165.15500756835937,0.01495361328125,0.014177467674016953,-0.02606932818889618
1702338859174365700,165.25336572265624,0.00047969818115234375,-0.028006751090288162,-0.011502817273139954
1702338859273486800,165.35248681640624,-0.005585670471191406,-0.009728923439979553,0.01617114245891571
1702338859372547000,165.45154711914063,-0.008637428283691406,0.0055092573165893555,-0.02817767858505249
1702338859471668000,165.55066796875,-0.007190704345703125,-0.010897120460867882,-0.016116738319396973
1702338859570758700,165.64975854492187,-0.025953292846679688,-0.005013622343540192,-0.007624492049217224
1702338859669910300,165.74891015625,0.02425861358642578,-0.01607479900121689,0.0018760859966278076
1702338859768939800,165.84793969726562,-0.009701728820800781,0.022587882354855537,-0.014590233564376831
1702338859867999700,165.94699975585937,-0.00012111663818359375,0.014899225905537605,0.006478890776634216
1702338859967151400,166.0461513671875,-0.02602386474609375,0.022046096622943878,0.017181456089019775
1702338860066242000,166.14524194335937,-0.011721611022949219,-0.001510579138994217,0.004580572247505188
1702338860164996900,166.24399682617187,-0.001781463623046875,0.009190667420625687,0.01162189245223999
1702338860264514800,166.34351489257813,-0.00348663330078125,0.008149072527885437,0.027883321046829224
1702338860363757800,166.4427578125,0.02503681182861328,-0.00794241949915886,-0.0028886348009109497
1702338860462879000,166.54187890625,0.0028924942016601562,0.025359757244586945,0.01978623867034912
1702338860562000100,166.64100024414063,-0.009558677673339844,0.0012634843587875366,-0.0032211989164352417
1702338860661121300,166.74012133789063,0.03193855285644531,-0.01483704149723053,-0.020820021629333496
1702338860760211700,166.83921166992187,0.0046710968017578125,-0.002307739108800888,-0.025505781173706055
1702338860858814000,166.93781396484374,0.011875152587890625,-0.00826803594827652,-0.02300761640071869
1702338860958179300,167.03717944335938,-0.0140380859375,-0.027199435979127884,0.014130249619483948
1702338861057575200,167.1365751953125,0.04417133331298828,0.008897505700588226,0.0031787753105163574
1702338861156665600,167.23566552734374,-0.01705169677734375,0.015462685376405716,-0.0035075843334198
1702338861255756300,167.33475634765625,-0.004238128662109375,0.02493780478835106,-0.009098485112190247
1702338861354816300,167.43381616210937,-0.0075206756591796875,0.010466840118169785,0.01018744707107544
1702338861454059500,167.5330595703125,0.0017223358154296875,0.0023750215768814087,0.008308038115501404
1702338861553546800,167.63254663085937,-0.00655364990234375,-0.00791492685675621,-0.016776174306869507
1702338861652175400,167.73117529296874,0.014504432678222656,-0.014512930065393448,-0.028122320771217346
1702338861751266000,167.83026611328125,0.00011730194091796875,-0.012019529938697815,-0.014063000679016113
1702338861850387000,167.92938696289062,-0.0019016265869140625,0.017994597554206848,-0.005499541759490967
1702338861949447200,168.028447265625,-0.03350067138671875,-0.007729616016149521,0.013614624738693237
1702338863633986800,169.71298681640624,0.011086463928222656,0.032134272158145905,0.020784243941307068
1702338863733138400,169.81213842773437,-0.012704849243164062,-0.023462383076548576,-0.006805166602134705
1702338863832259600,169.91125952148437,0.013353347778320312,-0.00792522169649601,0.010530292987823486
1702338863930953500,170.00995336914062,-0.016805648803710938,0.007431657984852791,0.020571395754814148
1702338864030837500,170.10983740234374,0.011927604675292969,-0.0045718662440776825,-0.008123025298118591
1702338864129531400,170.20853149414063,0.007945060729980469,0.00465584360063076,-0.008946612477302551
1702338864228621800,170.30762182617187,-0.0033407211303710938,-0.0020405780524015427,-0.004070505499839783
1702338864327712500,170.40671240234374,-0.0027818679809570312,-0.0016200728714466095,0.0243605375289917
1702338864426803000,170.50580297851562,-0.014300346374511719,-0.00327184796333313,-0.009389102458953857
1702338864525893600,170.6048935546875,0.006039619445800781,0.03326370567083359,-0.008006051182746887
1702338864624923100,170.70392309570312,-0.014922142028808594,-0.00613115169107914,-0.02637973427772522
1702338864724135700,170.8031357421875,-0.026404380798339844,-0.019422724843025208,0.004626214504241943
1702338864823226400,170.90222631835937,-0.01800823211669922,0.03975438326597214,-0.02027192711830139
1702338864922317000,171.00131713867188,-0.003040313720703125,-0.012269193306565285,0.026817291975021362
1702338865022231600,171.1012314453125,-0.014496803283691406,0.00782373733818531,-0.001781076192855835
1702338865120498200,171.19949829101563,0.027820587158203125,0.001751970499753952,-0.01320783793926239
1702338865220077000,171.2990771484375,0.025177955627441406,0.017059754580259323,0.013169556856155396
1702338865318587600,171.39758764648437,-0.01891326904296875,-0.007245782762765884,-0.013560980558395386
1702338865418685400,171.497685546875,0.010155677795410156,-0.02151498757302761,0.02129310369491577
1702338865615981600,171.69498168945313,0.02998638153076172,0.007468348369002342,-0.011360898613929749
1702338865715224600,171.794224609375,0.028989791870117188,-0.041588976979255676,0.02584482729434967
1702338865813796400,171.89279638671874,0.00021648406982421875,-0.010228045284748077,-0.012569859623908997
1702338865913863700,171.99286376953125,-0.0057926177978515625,-0.014867398887872696,-0.016635820269584656
1702338866012526800,172.09152685546874,-0.0008554458618164062,0.005209382623434067,0.01672375202178955
1702338866111648000,172.19064794921874,-0.04260730743408203,0.015541648492217064,0.019742727279663086
1702338866210738700,172.28973876953125,0.02235889434814453,0.03297673910856247,0.004717081785202026
1702338866309646000,172.38864599609374,0.008639335632324219,0.0060206446796655655,-0.001377895474433899
1702338866408553500,172.48755346679687,-0.004775047302246094,0.007087960839271545,0.007492139935493469
1702338866508376600,172.58737646484374,0.017976760864257812,0.023936238139867783,0.021601170301437378
1702338866607101000,172.68610083007812,-0.0009927749633789062,-0.014328565448522568,-0.021658629179000854
1702338866706191400,172.78519140625,0.017142295837402344,-0.015851926058530807,0.009693175554275513
1702338866805282000,172.88428198242187,-0.019651412963867188,0.00922585092484951,0.024705111980438232
1702338866904372700,172.98337280273438,0.00955963134765625,-0.02417857199907303,0.02282954752445221
1702338867003432700,173.0824326171875,-0.02396678924560547,0.007862165570259094,-0.012648582458496094
1702338869579299300,175.65829931640624,0.0012540817260742188,-0.017729023471474648,0.020969852805137634
1702338869678756000,175.75775610351562,-0.014934539794921875,-0.0031671635806560516,-0.013781949877738953
1702338869777877200,175.85687719726562,-0.006459236145019531,0.021378735080361366,-0.009245648980140686
1702338869876968000,175.95596801757813,-0.0033884048461914062,0.013466142117977142,0.02646474540233612
1702338869976058400,176.05505834960937,-0.010811805725097656,-0.013078693300485611,-0.02958175539970398
1702338870075149000,176.15414916992188,-0.0030155181884765625,-0.009689996019005775,0.02105933427810669
1702338870174178600,176.25317846679687,0.019431114196777344,0.00397169403731823,-0.0021575838327407837
1702338870273360600,176.35236059570312,-0.013745307922363281,-0.004193264991044998,0.01440449059009552
1702338870372451300,176.45145141601563,0.03243255615234375,0.005711093544960022,0.0007064342498779297
1702338870471572200,176.550572265625,-0.008885383605957031,0.010810106992721558,-0.005157411098480225
1702338870570632400,176.64963256835938,0.010547637939453125,0.014635015279054642,-0.004052266478538513
1702338870669723000,176.74872290039062,0.01677227020263672,-0.02563507668673992,0.004851385951042175
1702338870768478000,176.84747802734375,0.009979248046875,0.0070602260529994965,0.01026134192943573
1702338870868636400,176.94763647460937,0.016300201416015625,-0.0028935223817825317,0.012790888547897339
1702338870967025200,177.04602514648437,0.0295257568359375,-0.01630493439733982,-0.01617567241191864
1702338871066176800,177.1451767578125,-0.017296791076660156,0.00044895708560943604,0.014687299728393555
1702338871166091300,177.24509130859374,-0.008420944213867188,0.03192996606230736,0.018045276403427124
1702338871264541200,177.34354125976563,-0.02697467803955078,-0.012390762567520142,-0.016648247838020325
1702338871363357000,177.44235693359374,-0.0065250396728515625,-0.016227681189775467,0.012308716773986816
1702338871462752800,177.54175268554687,0.02050018310546875,-0.005908705294132233,0.02447676658630371
1702338871561843200,177.64084326171874,-0.0008935928344726562,0.03504623845219612,-0.016850486397743225
1702338871660934000,177.73993383789062,0.01922321319580078,-0.009045548737049103,-0.016222909092903137
1702338871760024600,177.83902465820313,-0.019903182983398438,0.005640245974063873,-0.011278122663497925
1702338871859084500,177.93808447265624,-0.018584251403808594,0.002365216612815857,0.0048189908266067505
1702338871958114000,178.03711401367187,-0.03543567657470703,0.0040290988981723785,0.029760271310806274
1702338874633254400,180.71225439453124,-0.00037097930908203125,-0.011595649644732475,-0.00817541778087616
1702338874732711200,180.81171118164062,0.005677223205566406,-0.006023045629262924,-0.006568878889083862
1702338874831801900,180.9108017578125,-0.013220787048339844,0.022985823452472687,0.028269633650779724
1702338874930923000,181.00992309570313,0.0029401779174804688,-0.008712900802493095,-0.02208830416202545
1702338875030013400,181.10901342773437,-0.021493911743164062,-0.020003482699394226,-0.00819481909275055
1702338875129470200,181.20847021484374,0.0020494461059570312,-0.03698434680700302,-0.006582766771316528
1702338875228194600,181.30719458007812,0.0036830902099609375,0.031102824956178665,0.015131533145904541
1702338875327315700,181.40631567382812,0.011059761047363281,-0.010780008509755135,-0.011516794562339783
1702338875426425000,181.50542504882813,0.025178909301757812,-0.001775164157152176,-0.0017946958541870117
1702338875525454600,181.60445458984375,-0.004937171936035156,-0.009395964443683624,0.0198441743850708
1702338875624606200,181.70360620117188,-0.00411224365234375,0.010205958038568497,0.002393096685409546
1702338875723330600,181.80233056640625,-0.023387908935546875,0.03450646623969078,-0.0021806657314300537
1702338875823489300,181.9024892578125,0.03438377380371094,-0.01350373588502407,0.008398875594139099
1702338875921939000,182.00093896484375,0.00470733642578125,-0.019575081765651703,0.017222434282302856
1702338876021517800,182.10051782226563,-0.006051063537597656,-0.00386226549744606,0.020586684346199036
1702338876120120000,182.1991201171875,-0.0030689239501953125,0.022795667871832848,-0.016103819012641907
1702338876219424300,182.29842431640625,0.009423255920410156,-0.006868783384561539,-0.03355404734611511
1702338876318240300,182.397240234375,-0.020081520080566406,-0.005655443295836449,0.01175883412361145
1702338876418673700,182.49767358398438,-0.006749153137207031,-0.003078700974583626,0.03555484116077423
1702338876516787500,182.59578735351562,-0.007622718811035156,-0.014885025098919868,-0.008034482598304749
1702338876615847700,182.69484765625,0.02556610107421875,0.011601809412240982,-0.0028832852840423584
1702338876714968800,182.79396875,-0.008609771728515625,0.03682016208767891,-0.01656140387058258
1702338876814059300,182.89305932617188,0.010775566101074219,-0.013136409223079681,-0.017538145184516907
1702338876913180400,182.99218041992188,-0.012969970703125,0.008652206510305405,0.0015862137079238892
1702338877011996400,183.09099633789063,0.02509593963623047,-0.020226439461112022,0.0015642046928405762
1702338879587985200,185.66698510742188,-0.034832000732421875,-0.006920905783772469,-0.01877570152282715
1702338879687442000,185.76644189453125,0.018858909606933594,-0.006546949967741966,-0.025384441018104553
1702338879786532400,185.86553247070313,0.0037412643432617188,-0.011789105832576752,0.024555504322052002
1702338879885623000,185.964623046875,-0.006855964660644531,0.024576500058174133,-0.009226709604263306
1702338879984896800,186.06389672851563,0.010241508483886719,0.014560149982571602,0.018495649099349976
1702338880083712500,186.16271240234374,-0.027373313903808594,-0.0013474654406309128,-0.0007260888814926147
1702338880182894800,186.26189477539063,-0.020812034606933594,-0.028984636068344116,-0.02073882520198822
1702338880281985300,186.3609853515625,0.03252983093261719,0.0018604826182126999,0.008462294936180115
1702338880381076000,186.46007592773438,0.011140823364257812,0.015586664900183678,0.02768409252166748
1702338880480166400,186.55916650390625,-0.0006875991821289062,-0.003326527774333954,0.00534704327583313
1702338880579287600,186.65828759765625,0.005412101745605469,0.0032854340970516205,-0.004124358296394348
1702338880678134000,186.75713403320313,0.012494087219238281,-0.008025120943784714,-0.023144200444221497
1702338880777468700,186.85646875,0.02835559844970703,-0.014176735654473305,-0.0006605088710784912
1702338880876559400,186.95555932617188,-0.028227806091308594,0.04369434341788292,0.008809596300125122
1702338880975680500,187.05468041992188,0.010392189025878906,-0.019373366609215736,0.015143796801567078
1702338881074771000,187.15377099609375,0.014653205871582031,0.023405857384204865,0.00445149838924408
1702338881174044700,187.25304467773438,0.01220703125,0.02556215226650238,-0.006017431616783142
1702338881273074200,187.35207421875,-0.0018033981323242188,-0.022511430084705353,-0.009188532829284668
1702338881372256300,187.45125634765625,0.0024957656860351562,0.008385516703128815,-0.0218021422624588
1702338881471347000,187.55034692382813,-0.017876625061035156,0.0054743848741054535,0.006019905209541321
