time,seconds_elapsed,z,y,x
1702338694182468600,0.261468505859375,0.0713653564453125,-0.4367523193359375,0.1416778564453125
1702338694281681200,0.36068115234375,0.1789703369140625,-0.4969482421875,0.2966766357421875
1702338694380863200,0.45986328125,0.2402191162109375,-0.2066650390625,-0.1566009521484375
1702338694480014800,0.559014892578125,0.2870941162109375,0.10919189453125,0.0628509521484375
1702338694579197200,0.658197265625,0.078826904296875,0.26312255859375,0.0276947021484375
1702338694678379300,0.757379150390625,-0.0346221923828125,-0.154998779296875,0.2354278564453125
1702338694777561300,0.856561279296875,0.17523193359375,0.141143798828125,0.2918853759765625
1702338694876743400,0.955743408203125,0.1496734619140625,0.0559234619140625,0.1597900390625
1702338694975895000,1.05489501953125,0.259918212890625,-0.0687103271484375,0.389892578125
1702338695075046700,1.154046630859375,0.1262359619140625,0.005859375,0.2428741455078125
1702338695174198300,1.2531982421875,0.2119903564453125,-0.0921478271484375,0.5107879638671875
1702338695273380400,1.35238037109375,0.0969390869140625,0.080963134765625,0.1885528564453125
1702338695372532000,1.451531982421875,0.055389404296875,0.075103759765625,0.1757659912109375
1702338695471683600,1.55068359375,-0.0074615478515625,0.119842529296875,0.1912078857421875
1702338695570804700,1.6498046875,0.030364990234375,-0.04473876953125,0.454864501953125
1702338695669926000,1.74892578125,-0.096405029296875,-0.2215728759765625,0.1640472412109375
1702338695769077500,1.848077392578125,0.208251953125,1.010406494140625,-0.4037322998046875
1702338695868473000,1.94747314453125,0.0569915771484375,0.017578125,0.5321044921875
1702338695967594200,2.04659423828125,0.05859375,0.174163818359375,-0.059661865234375
1702338696068058000,2.14705810546875,0.09161376953125,-0.1368865966796875,-0.3344879150390625
1702338696166050000,2.245050048828125,0.297210693359375,-0.168304443359375,-0.15765380859375
1702338696265201700,2.34420166015625,0.3318328857421875,0.0404815673828125,-0.1773681640625
1702338696364445000,2.44344482421875,0.3073272705078125,0.1155853271484375,-0.0676422119140625
1702338696463108000,2.542108154296875,0.4543304443359375,0.1390228271484375,-0.0990753173828125
1702338696563266800,2.642266845703125,0.361663818359375,0.0026702880859375,0.029296875
1702338696661930200,2.74093017578125,0.1320953369140625,0.4564666748046875,-0.0559234619140625
1702338696761051400,2.840051513671875,0.5773773193359375,0.4649810791015625,0.0532684326171875
1702338696860660700,2.93966064453125,1.5126800537109375,2.7441253662109375,-2.284454345703125
1702338696959354600,3.038354736328125,0.9640655517578125,0.8852386474609375,-1.7630157470703125
1702338697057987300,3.1369873046875,1.31719970703125,0.6407623291015625,-0.5411529541015625
1702338697157718800,3.23671875,1.5084075927734375,-1.9403839111328125,0.0980072021484375
1702338697256778800,3.33577880859375,1.324127197265625,-0.912933349609375,-0.174163818359375
1702338697355930400,3.434930419921875,0.4905548095703125,-0.805877685546875,-0.27484130859375
1702338697455082000,3.53408203125,0.1597900390625,-1.4636688232421875,0.3659210205078125
1702338697554233600,3.633233642578125,1.1771240234375,1.7805938720703125,0.4985504150390625
1702338697653354800,3.732354736328125,-0.063385009765625,2.1955108642578125,0.205596923828125
1702338697752048600,3.831048583984375,0.090545654296875,1.205352783203125,-0.0308990478515625
1702338697851627500,3.93062744140625,0.2450103759765625,1.170196533203125,0.2695159912109375
1702338697950779100,4.029779052734375,-0.0085296630859375,-0.0276947021484375,-0.042083740234375
1702338698049961200,4.128961181640625,-0.00799560546875,0.0159759521484375,-0.0149078369140625
1702338698149082400,4.228082275390625,-0.00799560546875,0.0239715576171875,-0.01385498046875
1702338698248172800,4.3271728515625,-0.0085296630859375,0.022369384765625,-0.0149078369140625
1702338698347019300,4.426019287109375,-0.0085296630859375,0.0239715576171875,-0.014373779296875
1702338698446812000,4.52581201171875,-0.00799560546875,0.024505615234375,-0.01385498046875
1702338698545645600,4.6246455078125,-0.00799560546875,0.0218353271484375,-0.01385498046875
1702338698644827600,4.72382763671875,-0.00799560546875,0.0234375,-0.01385498046875
1702338698743918300,4.82291845703125,-0.00799560546875,0.024505615234375,-0.0133209228515625
1702338698843222500,4.922222412109375,-0.006927490234375,0.0239715576171875,-0.0133209228515625
1702338698942313000,5.02131298828125,-0.0085296630859375,0.0229034423828125,-0.012786865234375
1702338699041068000,5.120068115234375,-0.00799560546875,0.0234375,-0.01385498046875
1702338699140524800,5.21952490234375,-0.00799560546875,0.0234375,-0.0133209228515625
1702338699239676400,5.318676513671875,-0.0090484619140625,0.0234375,-0.014373779296875
1702338699338797300,5.41779736328125,-0.00799560546875,0.022369384765625,-0.01385498046875
1702338699437918500,5.51691845703125,-0.00799560546875,0.0229034423828125,-0.014373779296875
1702338699537405700,5.61640576171875,-0.0085296630859375,0.0234375,-0.01385498046875
1702338699636008200,5.71500830078125,-0.0085296630859375,0.0234375,-0.01385498046875
1702338699735342800,5.8143427734375,-0.0085296630859375,0.022369384765625,-0.01385498046875
1702338699834586000,5.913586181640625,-0.00799560546875,0.0229034423828125,-0.01385498046875
1702338699933646000,6.01264599609375,-0.0085296630859375,0.022369384765625,-0.0133209228515625
1702338700032797700,6.111797607421875,-0.00799560546875,0.0229034423828125,-0.01385498046875
1702338700131918800,6.2109189453125,-0.0074615478515625,0.0234375,-0.014373779296875
1702338700231070500,6.310070556640625,-0.00799560546875,0.0229034423828125,-0.014373779296875
1702338700330008300,6.40900830078125,-0.0090484619140625,0.0229034423828125,-0.01385498046875
1702338700429282000,6.508281982421875,-0.0090484619140625,0.0234375,-0.01385498046875
1702338700528494600,6.60749462890625,-0.0074615478515625,0.0229034423828125,-0.0133209228515625
1702338700627615700,6.70661572265625,-0.00799560546875,0.022369384765625,-0.0133209228515625
1702338700726767400,6.805767333984375,-0.0085296630859375,0.0229034423828125,-0.01385498046875
1702338700825949400,6.904949462890625,-0.0085296630859375,0.0229034423828125,-0.012786865234375
1702338700925711400,7.00471142578125,-0.00799560546875,0.0239715576171875,-0.014373779296875
1702338701023734000,7.102734130859375,-0.0074615478515625,0.022369384765625,-0.0133209228515625
1702338701122885600,7.2018857421875,-0.0074615478515625,0.0229034423828125,-0.012786865234375
1702338701222006500,7.301006591796875,-0.00799560546875,0.0229034423828125,-0.0133209228515625
1702338701321432800,7.400432861328125,-0.0074615478515625,0.0234375,-0.01385498046875
1702338701420554000,7.499553955078125,-0.00799560546875,0.0229034423828125,-0.01385498046875
1702338701520193800,7.59919384765625,-0.00799560546875,0.022369384765625,-0.01385498046875
1702338701618613000,7.697613037109375,-0.0074615478515625,0.0229034423828125,-0.0133209228515625
1702338701717734100,7.796734130859375,-0.0085296630859375,0.0234375,-0.01385498046875
1702338701817130000,7.8961298828125,-0.00799560546875,0.0234375,-0.01385498046875
1702338701916434200,7.99543408203125,-0.0085296630859375,0.022369384765625,-0.01385498046875
1702338702015158500,8.094158447265626,-0.0085296630859375,0.0229034423828125,-0.01385498046875
1702338702114828800,8.193828857421876,-0.00799560546875,0.0234375,-0.0133209228515625
1702338702213431300,8.292431396484375,-0.0085296630859375,0.0229034423828125,-0.01385498046875
1702338702312583000,8.3915830078125,-0.0074615478515625,0.0234375,-0.0133209228515625
1702338702411703800,8.490703857421876,-0.0085296630859375,0.0234375,-0.01385498046875
1702338702511130000,8.590130126953126,-0.00799560546875,0.0234375,-0.014373779296875
1702338702610312200,8.689312255859376,-0.0085296630859375,0.0229034423828125,-0.01385498046875
1702338702709555500,8.788555419921876,-0.00799560546875,0.0229034423828125,-0.0133209228515625
1702338702808707000,8.88770703125,-0.0085296630859375,0.022369384765625,-0.0133209228515625
1702338702907828200,8.986828125,-0.0074615478515625,0.0234375,-0.01385498046875
1702338703007010300,9.08601025390625,-0.0074615478515625,0.0229034423828125,-0.014373779296875
1702338703106162000,9.185161865234376,-0.00799560546875,0.0229034423828125,-0.01385498046875
1702338703205313500,9.2843134765625,-0.0085296630859375,0.0229034423828125,-0.01385498046875
1702338703304465200,9.383465087890626,-0.0085296630859375,0.0229034423828125,-0.014373779296875
1702338703403616800,9.48261669921875,-0.00799560546875,0.022369384765625,-0.014373779296875
1702338703502615800,9.58161572265625,-0.0090484619140625,0.022369384765625,-0.01385498046875
1702338703601950500,9.680950439453126,-0.00799560546875,0.0234375,-0.014373779296875
1702338703701102000,9.78010205078125,-0.00799560546875,0.0234375,-0.012786865234375
1702338703800253700,9.879253662109376,-0.00799560546875,0.022369384765625,-0.01385498046875
1702338703899374800,9.978374755859376,-0.0085296630859375,0.0229034423828125,-0.014373779296875
1702338703998526500,10.0775263671875,-0.00799560546875,0.0218353271484375,-0.01385498046875
1702338704097739000,10.176739013671876,-0.0085296630859375,0.0234375,-0.014373779296875
1702338704196707600,10.27570751953125,-0.0085296630859375,0.0229034423828125,-0.014373779296875
1702338704295981300,10.374981201171876,-0.00799560546875,0.0229034423828125,-0.01385498046875
1702338704395255000,10.474255126953125,-0.00799560546875,0.0229034423828125,-0.01385498046875
1702338704494376000,10.5733759765625,-0.0090484619140625,0.022369384765625,-0.0133209228515625
1702338704593527600,10.672527587890626,-0.00799560546875,0.0234375,-0.01385498046875
1702338704692618200,10.7716181640625,-0.00799560546875,0.0229034423828125,-0.01385498046875
1702338704792105500,10.87110546875,-0.0085296630859375,0.0229034423828125,-0.01385498046875
1702338704890799400,10.96979931640625,-0.0074615478515625,0.0229034423828125,-0.0133209228515625
1702338704990073000,11.069072998046876,-0.00799560546875,0.0234375,-0.014373779296875
1702338705089194200,11.1681943359375,-0.00799560546875,0.0229034423828125,-0.0133209228515625
1702338705188345900,11.267345947265625,-0.00799560546875,0.022369384765625,-0.0133209228515625
1702338705287497500,11.36649755859375,-0.0085296630859375,0.022369384765625,-0.0133209228515625
1702338705386649000,11.465649169921875,-0.00799560546875,0.0229034423828125,-0.01385498046875
1702338705485495300,11.564495361328126,-0.0085296630859375,0.0229034423828125,-0.014373779296875
1702338705584891100,11.66389111328125,-0.0085296630859375,0.0229034423828125,-0.0133209228515625
1702338705684042800,11.763042724609376,-0.00799560546875,0.0234375,-0.01385498046875
1702338705783194400,11.8621943359375,-0.0085296630859375,0.0229034423828125,-0.0133209228515625
1702338705882376400,11.96137646484375,-0.00799560546875,0.0234375,-0.0133209228515625
1702338705981955300,12.060955322265626,-0.00799560546875,0.0229034423828125,-0.0133209228515625
1702338706080069400,12.1590693359375,-0.0085296630859375,0.0234375,-0.0133209228515625
1702338706179160000,12.25816015625,-0.0085296630859375,0.022369384765625,-0.0133209228515625
1702338706278311700,12.357311767578125,-0.0090484619140625,0.022369384765625,-0.0133209228515625
1702338706377676800,12.4566767578125,-0.00799560546875,0.022369384765625,-0.01385498046875
1702338706477042200,12.556042236328125,-0.00799560546875,0.0229034423828125,-0.014373779296875
1702338706576193500,12.655193603515626,-0.00799560546875,0.0229034423828125,-0.01385498046875
1702338706675498000,12.754498046875,-0.0085296630859375,0.0229034423828125,-0.0133209228515625
1702338706774069800,12.85306982421875,-0.0085296630859375,0.0229034423828125,-0.0133209228515625
1702338706873526500,12.952526611328125,-0.00799560546875,0.022369384765625,-0.01385498046875
1702338706972769500,13.05176953125,-0.00799560546875,0.0229034423828125,-0.014373779296875
1702338707071890700,13.150890625,-0.00799560546875,0.0229034423828125,-0.01385498046875
1702338707170615000,13.249614990234376,-0.00799560546875,0.0229034423828125,-0.01385498046875
1702338707270590700,13.3495908203125,-0.0085296630859375,0.0229034423828125,-0.01385498046875
1702338707368887800,13.4478876953125,-0.0085296630859375,0.0229034423828125,-0.0133209228515625
1702338707468039400,13.547039306640626,-0.0074615478515625,0.0229034423828125,-0.01385498046875
1702338707567191000,13.64619091796875,-0.00799560546875,0.0234375,-0.0133209228515625
1702338707666708700,13.745708740234376,-0.0085296630859375,0.0229034423828125,-0.014373779296875
1702338707765830000,13.844829833984376,-0.0074615478515625,0.0229034423828125,-0.0133209228515625
1702338707864920600,13.943920654296875,-0.0090484619140625,0.0229034423828125,-0.01385498046875
1702338707963828000,14.042827880859376,-0.00799560546875,0.0229034423828125,-0.014373779296875
1702338708063223800,14.142223876953125,-0.0085296630859375,0.022369384765625,-0.014373779296875
1702338708162375400,14.24137548828125,-0.0074615478515625,0.0229034423828125,-0.01385498046875
1702338708261496300,14.340496337890626,-0.0074615478515625,0.022369384765625,-0.01385498046875
1702338708360648000,14.43964794921875,-0.0085296630859375,0.0229034423828125,-0.01385498046875
1702338708459799600,14.538799560546876,-0.006927490234375,0.0234375,-0.01385498046875
1702338708558676500,14.637676513671876,-0.00799560546875,0.0234375,-0.0133209228515625
1702338708658438700,14.737438720703125,-0.0090484619140625,0.022369384765625,-0.014373779296875
1702338708757193500,14.836193359375,-0.00799560546875,0.0234375,-0.01385498046875
1702338708856314600,14.935314697265625,-0.00799560546875,0.0229034423828125,-0.01385498046875
1702338708955466200,15.03446630859375,-0.0085296630859375,0.0234375,-0.0133209228515625
1702338709054617900,15.133617919921875,-0.00799560546875,0.0234375,-0.0133209228515625
1702338709153891300,15.232891357421876,-0.0085296630859375,0.0234375,-0.0133209228515625
1702338709252829400,15.331829345703126,-0.00799560546875,0.022369384765625,-0.01385498046875
1702338709352255700,15.431255859375,-0.00799560546875,0.022369384765625,-0.012786865234375
1702338709451377000,15.530376953125,-0.0085296630859375,0.022369384765625,-0.01385498046875
1702338709550436900,15.629436767578126,-0.0074615478515625,0.0229034423828125,-0.01385498046875
1702338709649649400,15.7286494140625,-0.0085296630859375,0.0234375,-0.0133209228515625
1702338709748770600,15.8277705078125,-0.00799560546875,0.0229034423828125,-0.0149078369140625
1702338709847952600,15.92695263671875,-0.00799560546875,0.0218353271484375,-0.014373779296875
1702338709947545900,16.0265458984375,-0.00799560546875,0.0229034423828125,-0.01385498046875
1702338710046209300,16.125209228515626,-0.0085296630859375,0.0234375,-0.014373779296875
1702338710145330200,16.224330078125,-0.0085296630859375,0.0239715576171875,-0.0133209228515625
1702338710244481800,16.323481689453125,-0.0085296630859375,0.0229034423828125,-0.01385498046875
1702338710343633400,16.42263330078125,-0.0085296630859375,0.022369384765625,-0.01385498046875
1702338710442785000,16.521784912109375,-0.0085296630859375,0.0229034423828125,-0.01385498046875
1702338710541723100,16.62072314453125,-0.0085296630859375,0.0229034423828125,-0.0133209228515625
1702338710641088300,16.720088134765625,-0.00799560546875,0.022369384765625,-0.0133209228515625
1702338710740240000,16.819239990234376,-0.0074615478515625,0.0229034423828125,-0.0133209228515625
1702338710839391500,16.9183916015625,-0.00799560546875,0.0229034423828125,-0.0133209228515625
1702338710938360000,17.017360107421876,-0.0085296630859375,0.0239715576171875,-0.0133209228515625
1702338711037389600,17.1163896484375,-0.00799560546875,0.0229034423828125,-0.01385498046875
1702338711136480300,17.215480224609376,-0.00799560546875,0.0229034423828125,-0.014373779296875
1702338711235418000,17.314418212890626,-0.0085296630859375,0.022369384765625,-0.014373779296875
1702338711334569700,17.41356982421875,-0.00799560546875,0.022369384765625,-0.01385498046875
1702338711433782500,17.512782470703126,-0.0085296630859375,0.0234375,-0.01385498046875
1702338711533269800,17.612269775390626,-0.00799560546875,0.022369384765625,-0.0149078369140625
1702338711632421400,17.71142138671875,-0.00799560546875,0.0234375,-0.0133209228515625
1702338711731206700,17.81020654296875,-0.00799560546875,0.0229034423828125,-0.0133209228515625
1702338711830327800,17.909327880859376,-0.00799560546875,0.0229034423828125,-0.01385498046875
1702338711929479400,18.0084794921875,-0.00799560546875,0.022369384765625,-0.01385498046875
1702338712028875300,18.107875244140626,-0.00799560546875,0.0229034423828125,-0.01385498046875
1702338712128118300,18.2071181640625,-0.00799560546875,0.0229034423828125,-0.01385498046875
1702338712227300600,18.306300537109376,-0.00799560546875,0.0229034423828125,-0.01385498046875
1702338712326116400,18.405116455078126,-0.00799560546875,0.0218353271484375,-0.014373779296875
1702338712425298400,18.50429833984375,-0.0085296630859375,0.0234375,-0.01385498046875
1702338712524267000,18.60326708984375,-0.00799560546875,0.0229034423828125,-0.01385498046875
1702338712623388200,18.70238818359375,-0.00799560546875,0.0218353271484375,-0.01385498046875
1702338712722905900,18.80190576171875,-0.0085296630859375,0.022369384765625,-0.0133209228515625
1702338712822057500,18.901057373046875,-0.0085296630859375,0.0229034423828125,-0.014373779296875
1702338712921819600,19.000819580078126,-0.00799560546875,0.0234375,-0.01385498046875
1702338713020391400,19.099391357421876,-0.0085296630859375,0.022369384765625,-0.01385498046875
1702338713119573500,19.198573486328126,-0.0085296630859375,0.0229034423828125,-0.0133209228515625
1702338713218633500,19.297633544921876,-0.0085296630859375,0.0234375,-0.01385498046875
1702338713317846300,19.39684619140625,-0.00799560546875,0.0239715576171875,-0.012786865234375
1702338713416936700,19.495936767578126,-0.0085296630859375,0.0234375,-0.0133209228515625
1702338713516118800,19.595118896484376,-0.0074615478515625,0.0234375,-0.0133209228515625
1702338713615179000,19.694178955078126,-0.0074615478515625,0.0234375,-0.014373779296875
1702338713714758000,19.7937578125,-0.0085296630859375,0.022369384765625,-0.014373779296875
1702338713813512700,19.8925126953125,-0.0085296630859375,0.0234375,-0.0133209228515625
1702338713912664300,19.991664306640626,-0.00799560546875,0.0234375,-0.0133209228515625
1702338714011816000,20.09081591796875,-0.0074615478515625,0.0229034423828125,-0.01385498046875
1702338714110967600,20.189967529296876,-0.00799560546875,0.022369384765625,-0.01385498046875
1702338714210668500,20.28966845703125,-0.00799560546875,0.022369384765625,-0.01385498046875
1702338714309331700,20.388331787109376,-0.0085296630859375,0.0229034423828125,-0.0133209228515625
1702338714408697000,20.487697021484376,-0.0085296630859375,0.0234375,-0.0133209228515625
1702338714507696000,20.586696044921876,-0.006927490234375,0.0229034423828125,-0.0133209228515625
1702338714606847700,20.68584765625,-0.00799560546875,0.0229034423828125,-0.01385498046875
1702338714705968600,20.78496875,-0.0085296630859375,0.024505615234375,-0.0133209228515625
1702338714805151000,20.88415087890625,-0.00799560546875,0.0229034423828125,-0.014373779296875
1702338714904302600,20.983302490234376,-0.0074615478515625,0.0239715576171875,-0.0149078369140625
1702338715003271000,21.08227099609375,-0.00799560546875,0.0229034423828125,-0.014373779296875
1702338715102575000,21.1815751953125,-0.0085296630859375,0.0234375,-0.014373779296875
1702338715201696300,21.2806962890625,-0.00799560546875,0.0234375,-0.01385498046875
1702338715300847900,21.379847900390626,-0.00799560546875,0.0234375,-0.014373779296875
1702338715399999500,21.47899951171875,-0.00799560546875,0.0229034423828125,-0.0133209228515625
1702338715499120600,21.57812060546875,-0.0085296630859375,0.0234375,-0.01385498046875
1702338715597753300,21.67675341796875,-0.00799560546875,0.0218353271484375,-0.014373779296875
1702338715697759500,21.776759521484376,-0.0074615478515625,0.0239715576171875,-0.01385498046875
1702338715796575500,21.875575439453126,-0.00799560546875,0.0234375,-0.0149078369140625
1702338715895696400,21.9746962890625,-0.00799560546875,0.0218353271484375,-0.014373779296875
1702338715994817500,22.073817626953126,-0.00799560546875,0.0234375,-0.0133209228515625
1702338716093511400,22.172511474609376,-0.00799560546875,0.0229034423828125,-0.0133209228515625
1702338716192602000,22.27160205078125,-0.0074615478515625,0.0229034423828125,-0.01385498046875
1702338716291784200,22.3707841796875,-0.0074615478515625,0.0234375,-0.01385498046875
1702338716390905300,22.4699052734375,-0.00799560546875,0.022369384765625,-0.0133209228515625
1702338716490057000,22.569056884765626,-0.00799560546875,0.0229034423828125,-0.01385498046875
1702338716589574700,22.66857470703125,-0.0074615478515625,0.0234375,-0.01385498046875
1702338716688756700,22.7677568359375,-0.0074615478515625,0.022369384765625,-0.01544189453125
1702338716787878000,22.8668779296875,-0.0074615478515625,0.0234375,-0.014373779296875
1702338716887273700,22.966273681640626,-0.00799560546875,0.0229034423828125,-0.0133209228515625
1702338716985784300,23.064784423828126,-0.0074615478515625,0.0234375,-0.01385498046875
1702338717084936000,23.16393603515625,-0.0074615478515625,0.022369384765625,-0.0133209228515625
1702338717184392700,23.263392822265626,-0.00799560546875,0.0229034423828125,-0.014373779296875
1702338717283513900,23.362513916015626,-0.00799560546875,0.0229034423828125,-0.0133209228515625
1702338717382757000,23.461757080078126,-0.0074615478515625,0.0229034423828125,-0.01385498046875
1702338717482336000,23.5613359375,-0.0074615478515625,0.0234375,-0.0133209228515625
1702338717580663600,23.65966357421875,-0.00799560546875,0.0234375,-0.01385498046875
1702338717680028700,23.759028564453125,-0.00799560546875,0.0229034423828125,-0.01385498046875
1702338717779332900,23.858332763671875,-0.0085296630859375,0.0234375,-0.01385498046875
1702338717878454000,23.9574541015625,-0.0085296630859375,0.0239715576171875,-0.01385498046875
1702338717978277000,24.057277099609376,-0.00799560546875,0.0229034423828125,-0.0149078369140625
1702338718076757200,24.15575732421875,-0.00799560546875,0.0229034423828125,-0.01385498046875
1702338718175603700,24.254603759765626,-0.00799560546875,0.0229034423828125,-0.01385498046875
1702338718275060500,24.354060546875,-0.0085296630859375,0.0229034423828125,-0.012786865234375
1702338718374181600,24.453181640625,-0.00799560546875,0.022369384765625,-0.014373779296875
1702338718473333200,24.552333251953126,-0.0085296630859375,0.0229034423828125,-0.01385498046875
1702338718572149200,24.651149169921876,-0.006927490234375,0.0234375,-0.01385498046875
1702338718671636500,24.750636474609376,-0.0085296630859375,0.0229034423828125,-0.0133209228515625
1702338718770452500,24.849452392578126,-0.0074615478515625,0.0229034423828125,-0.01385498046875
1702338718870244900,24.949244873046876,-0.0074615478515625,0.0229034423828125,-0.014373779296875
1702338718969060900,25.048060791015626,-0.00799560546875,0.0229034423828125,-0.014373779296875
1702338719068181800,25.147181640625,-0.00799560546875,0.0234375,-0.0133209228515625
1702338719167913200,25.246913330078126,-0.0085296630859375,0.0234375,-0.01385498046875
1702338719266668300,25.345668212890626,-0.0085296630859375,0.0229034423828125,-0.014373779296875
1702338719365820000,25.44481982421875,-0.0074615478515625,0.0239715576171875,-0.014373779296875
1702338719464605200,25.543605224609376,-0.00799560546875,0.0229034423828125,-0.012786865234375
1702338719564123100,25.643123046875,-0.0074615478515625,0.0229034423828125,-0.0133209228515625
1702338719663274800,25.742274658203126,-0.0074615478515625,0.0218353271484375,-0.01385498046875
1702338719762426400,25.84142626953125,-0.0085296630859375,0.0234375,-0.0133209228515625
1702338719861577700,25.94057763671875,-0.00799560546875,0.0234375,-0.0133209228515625
1702338719960729300,26.039729248046875,-0.0090484619140625,0.0229034423828125,-0.014373779296875
1702338720059698000,26.138697998046876,-0.0085296630859375,0.0229034423828125,-0.0133209228515625
1702338720159521000,26.23852099609375,-0.0074615478515625,0.0229034423828125,-0.01385498046875
1702338720258184200,26.33718408203125,-0.00799560546875,0.0229034423828125,-0.01385498046875
1702338720357335800,26.436335693359375,-0.00799560546875,0.0229034423828125,-0.0133209228515625
1702338720456487400,26.5354873046875,-0.0074615478515625,0.0239715576171875,-0.01385498046875
1702338720555639000,26.63463916015625,-0.0085296630859375,0.0229034423828125,-0.0133209228515625
1702338720654729700,26.733729736328126,-0.00799560546875,0.0239715576171875,-0.014373779296875
1702338720753667600,26.83266748046875,-0.00799560546875,0.0229034423828125,-0.01385498046875
1702338720852697300,26.931697265625,-0.00799560546875,0.0229034423828125,-0.014373779296875
1702338720952154000,27.031154052734376,-0.00799560546875,0.0229034423828125,-0.01385498046875
1702338721051715300,27.13071533203125,-0.00799560546875,0.0234375,-0.01385498046875
1702338721150317600,27.229317626953126,-0.006927490234375,0.0229034423828125,-0.01385498046875
1702338721249072400,27.328072265625,-0.00799560546875,0.022369384765625,-0.01385498046875
1702338721348224000,27.42722412109375,-0.00799560546875,0.0239715576171875,-0.0133209228515625
1702338721447436800,27.526436767578126,-0.0074615478515625,0.022369384765625,-0.012786865234375
1702338721546557700,27.6255576171875,-0.0085296630859375,0.0234375,-0.01385498046875
1702338721645923000,27.724923095703126,-0.0074615478515625,0.022369384765625,-0.01385498046875
1702338721745257700,27.8242578125,-0.00799560546875,0.0234375,-0.0133209228515625
1702338721844409300,27.923409423828126,-0.00799560546875,0.022369384765625,-0.01385498046875
1702338721943774500,28.0227744140625,-0.0074615478515625,0.0234375,-0.01385498046875
1702338722042315800,28.121315673828125,-0.0085296630859375,0.0229034423828125,-0.014373779296875
1702338722141437000,28.22043701171875,-0.0090484619140625,0.022369384765625,-0.014373779296875
1702338722240802000,28.319802001953125,-0.0074615478515625,0.0229034423828125,-0.01385498046875
1702338722340045300,28.41904541015625,-0.00799560546875,0.0229034423828125,-0.0133209228515625
1702338722439227400,28.518227294921875,-0.00799560546875,0.022369384765625,-0.01385498046875
1702338722538043400,28.61704345703125,-0.00799560546875,0.0229034423828125,-0.0133209228515625
1702338722637225500,28.7162255859375,-0.0085296630859375,0.0234375,-0.01385498046875
1702338722736743400,28.815743408203126,-0.0085296630859375,0.022369384765625,-0.012786865234375
1702338722835895000,28.91489501953125,-0.0085296630859375,0.0229034423828125,-0.01385498046875
1702338722935046700,29.014046630859376,-0.00799560546875,0.0229034423828125,-0.01385498046875
1702338723034198300,29.1131982421875,-0.0085296630859375,0.0229034423828125,-0.01385498046875
1702338723133350000,29.212349853515626,-0.006927490234375,0.022369384765625,-0.0133209228515625
1702338723232501500,29.31150146484375,-0.00799560546875,0.022369384765625,-0.01385498046875
1702338723331561500,29.4105615234375,-0.0090484619140625,0.0229034423828125,-0.01385498046875
1702338723430774000,29.50977392578125,-0.0085296630859375,0.0229034423828125,-0.0133209228515625
1702338723529925600,29.608925537109375,-0.0085296630859375,0.0229034423828125,-0.01385498046875
1702338723629077200,29.7080771484375,-0.0085296630859375,0.0229034423828125,-0.01385498046875
1702338723728198400,29.807198486328126,-0.00799560546875,0.0229034423828125,-0.01385498046875
1702338723827350000,29.90635009765625,-0.00799560546875,0.0229034423828125,-0.01385498046875
1702338723926196500,30.005196533203126,-0.0085296630859375,0.0229034423828125,-0.014373779296875
1702338724025653200,30.1046533203125,-0.00799560546875,0.0229034423828125,-0.0133209228515625
1702338724124804900,30.203804931640626,-0.00799560546875,0.0229034423828125,-0.014373779296875
1702338724224444700,30.303444580078125,-0.0074615478515625,0.0229034423828125,-0.01385498046875
1702338724323291100,30.402291015625,-0.0085296630859375,0.022369384765625,-0.012786865234375
1702338724422412300,30.501412353515626,-0.00799560546875,0.0229034423828125,-0.0133209228515625
1702338724521441800,30.60044189453125,-0.00799560546875,0.022369384765625,-0.01385498046875
1702338724620624000,30.699623779296875,-0.0085296630859375,0.022369384765625,-0.012786865234375
1702338724719531500,30.798531494140626,-0.0074615478515625,0.0234375,-0.01385498046875
1702338724818957600,30.89795751953125,-0.0074615478515625,0.0234375,-0.01385498046875
1702338724918109200,30.997109130859375,-0.0085296630859375,0.0229034423828125,-0.014373779296875
1702338725017260800,31.0962607421875,-0.00799560546875,0.0234375,-0.014373779296875
1702338725116290600,31.19529052734375,-0.0085296630859375,0.0229034423828125,-0.01385498046875
1702338725215838700,31.294838623046875,-0.00799560546875,0.0229034423828125,-0.012786865234375
1702338725314685200,31.393685302734376,-0.00799560546875,0.0229034423828125,-0.01385498046875
1702338725413806300,31.492806396484376,-0.0085296630859375,0.0229034423828125,-0.0133209228515625
1702338725512927500,31.591927490234376,-0.00799560546875,0.0229034423828125,-0.01385498046875
1702338725612079000,31.6910791015625,-0.00799560546875,0.0229034423828125,-0.01385498046875
1702338725711200000,31.790199951171875,-0.0090484619140625,0.0229034423828125,-0.012786865234375
1702338725810351600,31.8893515625,-0.0085296630859375,0.0234375,-0.0133209228515625
1702338725909625300,31.988625244140625,-0.00799560546875,0.0229034423828125,-0.01385498046875
1702338726008654800,32.08765478515625,-0.0074615478515625,0.0229034423828125,-0.01385498046875
1702338726107715000,32.186715087890626,-0.00799560546875,0.0234375,-0.01385498046875
1702338726206744600,32.28574462890625,-0.00799560546875,0.0229034423828125,-0.014373779296875
1702338726305499400,32.38449951171875,-0.0085296630859375,0.0229034423828125,-0.0133209228515625
1702338726405597200,32.48459716796875,-0.00799560546875,0.0229034423828125,-0.01385498046875
1702338726503802600,32.582802734375,-0.00799560546875,0.0229034423828125,-0.014373779296875
1702338726602954200,32.681954345703126,-0.0074615478515625,0.0229034423828125,-0.014373779296875
1702338726702045000,32.781044921875,-0.0085296630859375,0.0229034423828125,-0.01385498046875
1702338726801410000,32.88041015625,-0.00799560546875,0.0229034423828125,-0.01385498046875
1702338726900775400,32.979775390625,-0.0085296630859375,0.0234375,-0.014373779296875
1702338726999865900,33.078865966796876,-0.0085296630859375,0.0234375,-0.0133209228515625
1702338727099078700,33.17807861328125,-0.00799560546875,0.0229034423828125,-0.014373779296875
1702338727197711400,33.27671142578125,-0.00799560546875,0.0234375,-0.0133209228515625
1702338727296832500,33.37583251953125,-0.0085296630859375,0.0234375,-0.0133209228515625
1702338727396319700,33.47531982421875,-0.0085296630859375,0.0218353271484375,-0.014373779296875
1702338727495501800,33.57450170898438,-0.0085296630859375,0.0234375,-0.014373779296875
1702338727594256600,33.67325659179688,-0.0074615478515625,0.022369384765625,-0.0133209228515625
1702338727694659600,33.77365966796875,-0.0074615478515625,0.0229034423828125,-0.01385498046875
1702338727792529400,33.871529296875,-0.00799560546875,0.0229034423828125,-0.0133209228515625
1702338727891650600,33.970650634765626,-0.00799560546875,0.0229034423828125,-0.01385498046875
1702338727990771700,34.069771728515626,-0.00799560546875,0.0234375,-0.01385498046875
1702338728090259000,34.169259033203126,-0.00799560546875,0.0234375,-0.01385498046875
1702338728189258000,34.268258056640626,-0.0085296630859375,0.0234375,-0.0133209228515625
1702338728288379100,34.367379150390626,-0.00799560546875,0.022369384765625,-0.014373779296875
1702338728387896800,34.46689672851563,-0.0085296630859375,0.0234375,-0.01385498046875
1702338728486316000,34.56531591796875,-0.0074615478515625,0.0229034423828125,-0.01385498046875
1702338728585467600,34.66446752929688,-0.00799560546875,0.0229034423828125,-0.0133209228515625
1702338728684955000,34.76395483398438,-0.00799560546875,0.0239715576171875,-0.01385498046875
1702338728784106500,34.8631064453125,-0.0074615478515625,0.0239715576171875,-0.014373779296875
1702338728883227600,34.9622275390625,-0.0074615478515625,0.0229034423828125,-0.01385498046875
1702338728982226700,35.061226806640626,-0.0074615478515625,0.0234375,-0.01385498046875
1702338729082080300,35.161080322265626,-0.00799560546875,0.0234375,-0.0133209228515625
1702338729180652000,35.259652099609376,-0.0085296630859375,0.0239715576171875,-0.012786865234375
1702338729279773200,35.358773193359376,-0.00799560546875,0.0234375,-0.01385498046875
1702338729378894300,35.457894287109376,-0.0074615478515625,0.0218353271484375,-0.0133209228515625
1702338729478076400,35.557076416015626,-0.0074615478515625,0.0229034423828125,-0.01385498046875
1702338729577166800,35.65616674804688,-0.0085296630859375,0.0229034423828125,-0.01385498046875
1702338729676227000,35.75522705078125,-0.00799560546875,0.0218353271484375,-0.01385498046875
1702338729775470000,35.85446997070313,-0.0085296630859375,0.0229034423828125,-0.0133209228515625
1702338729874591200,35.95359130859375,-0.00799560546875,0.0234375,-0.01385498046875
1702338729973712400,36.05271240234375,-0.00799560546875,0.0234375,-0.0133209228515625
1702338730072833500,36.15183349609375,-0.00799560546875,0.0229034423828125,-0.0133209228515625
1702338730172198700,36.25119873046875,-0.0090484619140625,0.0234375,-0.012786865234375
1702338730271442000,36.35044189453125,-0.00799560546875,0.022369384765625,-0.01385498046875
1702338730370441000,36.44944091796875,-0.00799560546875,0.022369384765625,-0.01385498046875
1702338730469531400,36.548531494140626,-0.0074615478515625,0.0234375,-0.014373779296875
1702338730568652500,36.647652587890626,-0.00799560546875,0.0229034423828125,-0.01385498046875
1702338730668963800,36.7479638671875,-0.0074615478515625,0.022369384765625,-0.0133209228515625
1702338730766894600,36.84589453125,-0.00799560546875,0.0229034423828125,-0.01385498046875
1702338730866077000,36.945076904296876,-0.0090484619140625,0.0229034423828125,-0.01385498046875
1702338730965137000,37.044136962890626,-0.00799560546875,0.0229034423828125,-0.01385498046875
1702338731064258000,37.143258056640626,-0.00799560546875,0.0229034423828125,-0.01385498046875
1702338731163135000,37.242135009765626,-0.00799560546875,0.0239715576171875,-0.0133209228515625
1702338731262378000,37.3413779296875,-0.0085296630859375,0.0234375,-0.01385498046875
1702338731361590800,37.4405908203125,-0.00799560546875,0.0234375,-0.014373779296875
1702338731461169700,37.540169677734376,-0.00799560546875,0.0234375,-0.01385498046875
1702338731559436300,37.638436279296876,-0.00799560546875,0.022369384765625,-0.01385498046875
1702338731658588000,37.737587890625,-0.00799560546875,0.0229034423828125,-0.01385498046875
1702338731757708800,37.83670874023438,-0.0085296630859375,0.0234375,-0.01385498046875
1702338731857135000,37.93613500976563,-0.00799560546875,0.0229034423828125,-0.01385498046875
1702338731956378400,38.03537841796875,-0.00799560546875,0.024505615234375,-0.01385498046875
1702338732055530000,38.134530029296876,-0.0085296630859375,0.0229034423828125,-0.01385498046875
1702338732154407000,38.233406982421876,-0.0085296630859375,0.0234375,-0.01385498046875
1702338732253344800,38.3323447265625,-0.0074615478515625,0.022369384765625,-0.01385498046875
1702338732352710100,38.431710205078126,-0.0074615478515625,0.0229034423828125,-0.014373779296875
1702338732452044800,38.531044921875,-0.00799560546875,0.0229034423828125,-0.0133209228515625
1702338732551166000,38.630166015625,-0.00799560546875,0.0234375,-0.014373779296875
1702338732649890300,38.728890380859376,-0.00799560546875,0.022369384765625,-0.01385498046875
1702338732750201600,38.82920166015625,-0.00799560546875,0.0229034423828125,-0.01385498046875
1702338732848193500,38.927193603515626,-0.0085296630859375,0.0229034423828125,-0.01385498046875
1702338732947314700,39.026314697265626,-0.00799560546875,0.0234375,-0.014373779296875
1702338733046649300,39.1256494140625,-0.0074615478515625,0.0229034423828125,-0.01385498046875
1702338733145801000,39.224801025390626,-0.00799560546875,0.0229034423828125,-0.0133209228515625
1702338733244952600,39.32395263671875,-0.00799560546875,0.022369384765625,-0.0133209228515625
1702338733344104200,39.423104248046876,-0.0074615478515625,0.0234375,-0.0133209228515625
1702338733443438800,39.52243896484375,-0.0085296630859375,0.0234375,-0.014373779296875
1702338733542071800,39.62107177734375,-0.00799560546875,0.0229034423828125,-0.012786865234375
1702338733641192700,39.72019262695313,-0.0090484619140625,0.0234375,-0.0133209228515625
1702338733740619000,39.81961889648438,-0.0085296630859375,0.022369384765625,-0.0133209228515625
1702338733839892700,39.918892822265626,-0.0074615478515625,0.0239715576171875,-0.01385498046875
1702338733938952700,40.01795263671875,-0.0085296630859375,0.0218353271484375,-0.014373779296875
1702338734037799200,40.11679907226563,-0.0085296630859375,0.0234375,-0.0133209228515625
1702338734137073000,40.216072998046876,-0.00799560546875,0.022369384765625,-0.01385498046875
1702338734236346600,40.3153466796875,-0.0085296630859375,0.0229034423828125,-0.01385498046875
1702338734335467800,40.4144677734375,-0.0074615478515625,0.0229034423828125,-0.01385498046875
1702338734434588700,40.51358862304688,-0.0090484619140625,0.0229034423828125,-0.0133209228515625
1702338734533709800,40.61270971679688,-0.0074615478515625,0.0229034423828125,-0.0133209228515625
1702338734632831000,40.7118310546875,-0.0085296630859375,0.0229034423828125,-0.012786865234375
1702338734731891000,40.81089086914063,-0.00799560546875,0.022369384765625,-0.0133209228515625
1702338734831103700,40.910103759765626,-0.0085296630859375,0.0239715576171875,-0.01385498046875
1702338734930225000,41.009224853515626,-0.0085296630859375,0.0234375,-0.01385498046875
1702338735030047700,41.1090478515625,-0.00799560546875,0.0234375,-0.014373779296875
1702338735128497400,41.20749731445313,-0.00799560546875,0.0229034423828125,-0.0133209228515625
1702338735228793600,41.307793701171875,-0.0085296630859375,0.0229034423828125,-0.01385498046875
1702338735327304400,41.406304443359375,-0.00799560546875,0.022369384765625,-0.014373779296875
1702338735426151000,41.50515087890625,-0.0074615478515625,0.0234375,-0.0133209228515625
1702338735525272000,41.60427197265625,-0.00799560546875,0.0234375,-0.0133209228515625
1702338735624393000,41.70339306640625,-0.00799560546875,0.022369384765625,-0.0133209228515625
1702338735723697200,41.802697265625,-0.0085296630859375,0.022369384765625,-0.014373779296875
1702338735822665700,41.901665771484375,-0.00799560546875,0.022369384765625,-0.01385498046875
1702338735921756400,42.00075634765625,-0.0085296630859375,0.0234375,-0.01385498046875
1702338736020663800,42.099663818359375,-0.00799560546875,0.0234375,-0.0133209228515625
1702338736120517400,42.199517333984375,-0.00799560546875,0.022369384765625,-0.0133209228515625
1702338736218906000,42.297906005859375,-0.00799560546875,0.0218353271484375,-0.01385498046875
1702338736318149000,42.397149169921875,-0.00799560546875,0.022369384765625,-0.01385498046875
1702338736416904000,42.495904052734375,-0.00799560546875,0.0234375,-0.0133209228515625
1702338736516696600,42.595696533203125,-0.0090484619140625,0.022369384765625,-0.0133209228515625
1702338736615207200,42.694207275390625,-0.00799560546875,0.0229034423828125,-0.012786865234375
1702338736714358800,42.79335888671875,-0.00799560546875,0.0229034423828125,-0.0133209228515625
1702338736813480000,42.89247998046875,-0.00799560546875,0.0229034423828125,-0.01385498046875
1702338736912875800,42.991875732421875,-0.00799560546875,0.0234375,-0.0133209228515625
1702338737012118800,43.091118896484375,-0.00799560546875,0.0229034423828125,-0.01385498046875
1702338737111270400,43.1902705078125,-0.0090484619140625,0.0234375,-0.014373779296875
1702338737209994800,43.288994873046875,-0.00799560546875,0.0234375,-0.0133209228515625
1702338737309085400,43.38808544921875,-0.00799560546875,0.0229034423828125,-0.0133209228515625
1702338737408267500,43.487267578125,-0.0074615478515625,0.0229034423828125,-0.0133209228515625
1702338737507755000,43.58675512695312,-0.00799560546875,0.022369384765625,-0.014373779296875
1702338737606937000,43.68593701171875,-0.0085296630859375,0.0229034423828125,-0.0133209228515625
1702338737705631000,43.784630859375,-0.00799560546875,0.0234375,-0.01385498046875
1702338737805759000,43.884759033203125,-0.00799560546875,0.022369384765625,-0.01385498046875
1702338737903934200,43.98293432617187,-0.00799560546875,0.0234375,-0.01385498046875
1702338738003085800,44.0820859375,-0.00799560546875,0.0234375,-0.014373779296875
1702338738102206700,44.181206787109375,-0.00799560546875,0.0229034423828125,-0.01385498046875
1702338738201541600,44.28054174804687,-0.0085296630859375,0.0229034423828125,-0.012786865234375
1702338738300754200,44.379754150390625,-0.00799560546875,0.0234375,-0.01385498046875
1702338738399875300,44.478875244140625,-0.0074615478515625,0.0229034423828125,-0.01385498046875
1702338738498965800,44.5779658203125,-0.0074615478515625,0.0239715576171875,-0.01385498046875
1702338738597842700,44.6768427734375,-0.00799560546875,0.0229034423828125,-0.0133209228515625
1702338738697360600,44.776360595703125,-0.00799560546875,0.0234375,-0.01385498046875
1702338738796481800,44.875481689453125,-0.0085296630859375,0.0234375,-0.01385498046875
1702338738895663900,44.974663818359375,-0.0085296630859375,0.022369384765625,-0.01385498046875
1702338738994785000,45.073784912109375,-0.00799560546875,0.0229034423828125,-0.0133209228515625
1702338739093509400,45.17250927734375,-0.00799560546875,0.0218353271484375,-0.01385498046875
1702338739193179600,45.2721796875,-0.0090484619140625,0.022369384765625,-0.01385498046875
1702338739292148200,45.371148193359375,-0.00799560546875,0.0234375,-0.0149078369140625
1702338739391299800,45.4702998046875,-0.00799560546875,0.0234375,-0.01385498046875
1702338739490482000,45.56948193359375,-0.00799560546875,0.0229034423828125,-0.01385498046875
1702338739589572600,45.668572509765625,-0.00799560546875,0.0234375,-0.01385498046875
1702338739688693500,45.767693603515625,-0.0085296630859375,0.022369384765625,-0.01385498046875
1702338739787509500,45.866509521484375,-0.0085296630859375,0.0234375,-0.01385498046875
1702338739886813700,45.965813720703125,-0.00799560546875,0.0234375,-0.0133209228515625
1702338739986087400,46.06508740234375,-0.0085296630859375,0.0234375,-0.01385498046875
1702338740085239000,46.164239013671875,-0.00799560546875,0.0234375,-0.0133209228515625
1702338740184573700,46.26357373046875,-0.0085296630859375,0.022369384765625,-0.01385498046875
1702338740283725300,46.362725341796875,-0.00799560546875,0.0229034423828125,-0.01385498046875
1702338740382724400,46.461724365234375,-0.0090484619140625,0.0234375,-0.01385498046875
1702338740482364200,46.5613642578125,-0.00799560546875,0.0234375,-0.01385498046875
1702338740581119200,46.660119140625,-0.0085296630859375,0.0229034423828125,-0.01385498046875
1702338740680270800,46.759270751953125,-0.00799560546875,0.0229034423828125,-0.01385498046875
1702338740779391700,46.858391845703125,-0.0090484619140625,0.022369384765625,-0.01385498046875
1702338740878543400,46.95754345703125,-0.00799560546875,0.0218353271484375,-0.0133209228515625
1702338740977664500,47.05666455078125,-0.0090484619140625,0.0234375,-0.0133209228515625
1702338741076541400,47.15554150390625,-0.0085296630859375,0.022369384765625,-0.01385498046875
1702338741175388000,47.254387939453125,-0.0074615478515625,0.0234375,-0.0133209228515625
1702338741274783700,47.35378369140625,-0.0085296630859375,0.0229034423828125,-0.01385498046875
1702338741374026800,47.45302685546875,-0.00799560546875,0.0234375,-0.0133209228515625
1702338741472751000,47.551751220703125,-0.00799560546875,0.022369384765625,-0.014373779296875
1702338741572238600,47.651238525390625,-0.00799560546875,0.0234375,-0.01385498046875
1702338741671023900,47.75002392578125,-0.00799560546875,0.0239715576171875,-0.0133209228515625
1702338741770145000,47.84914501953125,-0.00799560546875,0.0234375,-0.0133209228515625
1702338741869266200,47.94826611328125,-0.00799560546875,0.0229034423828125,-0.01385498046875
1702338741968661800,48.047661865234375,-0.00799560546875,0.022369384765625,-0.01385498046875
1702338742067874600,48.14687451171875,-0.00799560546875,0.0234375,-0.01385498046875
1702338742166904000,48.245904052734375,-0.0085296630859375,0.0229034423828125,-0.01385498046875
1702338742266177800,48.345177734375,-0.00799560546875,0.0229034423828125,-0.0133209228515625
1702338742364841000,48.443841064453125,-0.0085296630859375,0.0234375,-0.01385498046875
1702338742463992600,48.54299267578125,-0.0085296630859375,0.0229034423828125,-0.01385498046875
1702338742563449300,48.642449462890625,-0.0090484619140625,0.0229034423828125,-0.01385498046875
1702338742662662100,48.741662109375,-0.0074615478515625,0.0239715576171875,-0.014373779296875
1702338742761386500,48.840386474609375,-0.0085296630859375,0.0229034423828125,-0.01385498046875
1702338742861423000,48.940423095703125,-0.0085296630859375,0.0229034423828125,-0.0133209228515625
1702338742959628500,49.038628662109375,-0.0085296630859375,0.022369384765625,-0.0133209228515625
1702338743058780200,49.1377802734375,-0.00799560546875,0.0229034423828125,-0.0133209228515625
1702338743157840400,49.23684033203125,-0.0085296630859375,0.0234375,-0.01385498046875
1702338743257205500,49.33620556640625,-0.00799560546875,0.022369384765625,-0.01385498046875
1702338743356418300,49.435418212890625,-0.00799560546875,0.022369384765625,-0.01385498046875
1702338743455570000,49.53456982421875,-0.00799560546875,0.0229034423828125,-0.01385498046875
1702338743554538200,49.633538330078125,-0.0085296630859375,0.0234375,-0.0133209228515625
1702338743653720600,49.732720458984375,-0.0085296630859375,0.0229034423828125,-0.01385498046875
1702338743752872200,49.8318720703125,-0.00799560546875,0.0229034423828125,-0.012786865234375
1702338743852054300,49.93105419921875,-0.00799560546875,0.0234375,-0.0133209228515625
1702338743951206000,50.030205810546875,-0.0085296630859375,0.022369384765625,-0.01385498046875
1702338744050326800,50.129326904296875,-0.0074615478515625,0.0229034423828125,-0.0133209228515625
1702338744149051400,50.22805151367187,-0.0074615478515625,0.0234375,-0.01385498046875
1702338744248721700,50.3277216796875,-0.00799560546875,0.0218353271484375,-0.0133209228515625
1702338744347659800,50.42665966796875,-0.0074615478515625,0.0229034423828125,-0.01385498046875
1702338744446780700,50.52578076171875,-0.0085296630859375,0.022369384765625,-0.0133209228515625
1702338744545901800,50.62490185546875,-0.0074615478515625,0.0234375,-0.01385498046875
1702338744645053400,50.724053466796875,-0.00799560546875,0.022369384765625,-0.014373779296875
1702338744744174600,50.823174560546875,-0.00799560546875,0.022369384765625,-0.01385498046875
1702338744842990600,50.921990478515625,-0.00799560546875,0.0234375,-0.01385498046875
1702338744942386200,51.02138623046875,-0.0074615478515625,0.0229034423828125,-0.0133209228515625
1702338745041507300,51.12050732421875,-0.0074615478515625,0.0229034423828125,-0.014373779296875
1702338745140689400,51.219689453125,-0.00799560546875,0.0234375,-0.0133209228515625
1702338745240024000,51.319024169921875,-0.0085296630859375,0.0234375,-0.01385498046875
1702338745339114800,51.41811474609375,-0.0074615478515625,0.0234375,-0.01385498046875
1702338745438113800,51.51711376953125,-0.0085296630859375,0.0229034423828125,-0.01385498046875
1702338745537937000,51.61693701171875,-0.00799560546875,0.0239715576171875,-0.01385498046875
1702338745636752600,51.715752685546875,-0.00799560546875,0.022369384765625,-0.01385498046875
1702338745735629600,51.814629638671875,-0.0085296630859375,0.0229034423828125,-0.01385498046875
1702338745834750700,51.913750732421875,-0.00799560546875,0.0229034423828125,-0.01385498046875
1702338745933994000,52.012993896484375,-0.00799560546875,0.0229034423828125,-0.014373779296875
1702338746033023500,52.1120234375,-0.0074615478515625,0.0234375,-0.0133209228515625
1702338746131931000,52.210930908203125,-0.0074615478515625,0.0234375,-0.01385498046875
1702338746230716400,52.30971630859375,-0.610931396484375,-0.5763092041015625,-0.1832275390625
1702338746330081500,52.40908154296875,-0.0090484619140625,0.1864166259765625,-0.0042572021484375
1702338746429355300,52.508355224609375,-0.0090484619140625,0.12835693359375,-0.00372314453125
1702338746528079600,52.60707958984375,0.0793609619140625,-0.8101348876953125,0.036224365234375
1702338746627780600,52.706780517578125,0.05059814453125,0.1225128173828125,-0.022369384765625
1702338746726321700,52.80532177734375,-0.0085296630859375,-0.0229034423828125,-0.012786865234375
1702338746825412400,52.904412353515625,0.09747314453125,0.0873565673828125,-0.020233154296875
1702338746924564000,53.00356396484375,2.2226715087890625,-0.0250396728515625,-0.0639190673828125
1702338747023929000,53.10292919921875,0.866058349609375,-0.29241943359375,-0.1097259521484375
1702338747123172400,53.20217236328125,-0.1145172119140625,0.018646240234375,-0.0122528076171875
1702338747222171400,53.30117138671875,0.825042724609375,-0.0665740966796875,-0.037811279296875
1702338747321017900,53.400017822265625,0.4894866943359375,0.1715087890625,0.02130126953125
1702338747420169500,53.49916943359375,0.554473876953125,-0.0016021728515625,-0.028228759765625
1702338747519290600,53.59829052734375,0.7323760986328125,-0.4553985595703125,-0.014373779296875
1702338747618777900,53.69777783203125,0.2647247314453125,0.4048004150390625,-0.061248779296875
1702338747717899000,53.79689892578125,-1.522796630859375,0.76751708984375,0.2098541259765625
1702338747816593000,53.89559301757812,0.4575347900390625,0.039947509765625,0.01971435546875
1702338747916843000,53.995843017578125,0.382965087890625,0.09375,-0.0532684326171875
1702338748014835000,54.0938349609375,0.0814971923828125,0.20452880859375,-0.02130126953125
1702338748113956000,54.1929560546875,-0.152862548828125,0.1539306640625,-0.0101165771484375
1702338748213016000,54.29201611328125,0.6524810791015625,0.4090576171875,-0.0122528076171875
1702338748312350700,54.391350830078125,0.22210693359375,-0.291351318359375,-0.1507415771484375
1702338748411563500,54.4905634765625,-0.6349029541015625,0.076171875,0.1715087890625
1702338748510684700,54.5896845703125,-1.7938995361328125,0.06817626953125,0.0639190673828125
1702338748610080300,54.689080322265625,-0.2205047607421875,-0.3904266357421875,-0.1912078857421875
1702338748708835300,54.78783544921875,0.1970672607421875,0.149139404296875,-0.0346221923828125
1702338748808383500,54.887383544921875,-0.641815185546875,0.4692535400390625,0.1363525390625
1702338748907260400,54.986260498046875,-0.887359619140625,0.6130523681640625,0.4213104248046875
1702338749006381600,55.085381591796875,-1.097747802734375,0.1358184814453125,-0.1454010009765625
1702338749105502700,55.184502685546875,-1.4530181884765625,-0.15765380859375,-0.075103759765625
1702338749204440600,55.283440673828125,-1.756622314453125,0.1448822021484375,-0.084686279296875
1702338749304294100,55.383294189453125,-1.608551025390625,0.343017578125,0.975250244140625
1702338749402927000,55.481927001953125,-1.1787109375,0.484161376953125,0.351531982421875
1702338749502052600,55.58105249023438,-0.579498291015625,-0.74249267578125,-0.14593505859375
1702338749601173800,55.680173828125,-1.164337158203125,1.45355224609375,0.3286285400390625
1702338749700295000,55.779294921875,0.242340087890625,-0.1848297119140625,-0.38775634765625
1702338749799446500,55.878446533203125,0.1246337890625,0.1086578369140625,-0.3366241455078125
1702338749898476000,55.97747607421875,0.1848297119140625,-0.56512451171875,-0.5528717041015625
1702338749997719000,56.07671899414063,-0.090545654296875,-0.6700439453125,-0.454864501953125
1702338750096840200,56.17584008789063,-0.2008056640625,-0.32916259765625,0.328094482421875
1702338750196174800,56.2751748046875,-0.4245147705078125,0.3680419921875,0.333953857421875
1702338750295357200,56.374357177734375,-1.2532806396484375,-3.5153656005859375,0.231689453125
1702338750394264600,56.4732646484375,-0.1592559814453125,0.1113128662109375,0.0367584228515625
1702338750493568800,56.57256884765625,-0.0090484619140625,0.02130126953125,-0.0207672119140625
1702338750592659200,56.6716591796875,0.0042572021484375,0.03302001953125,-0.00213623046875
1702338750691750000,56.77075,-0.00799560546875,0.0090484619140625,-0.012786865234375
1702338750790871000,56.86987109375,-0.00799560546875,0.018646240234375,-0.0170440673828125
1702338750889992200,56.9689921875,-0.00799560546875,0.0234375,-0.01385498046875
1702338750989113000,57.06811303710938,-0.00799560546875,0.0234375,-0.01385498046875
1702338751088326000,57.167325927734375,-0.0085296630859375,0.0229034423828125,-0.01385498046875
1702338751186806000,57.26580590820313,-0.00799560546875,0.0229034423828125,-0.0133209228515625
1702338751285927200,57.36492724609375,-0.00799560546875,0.0229034423828125,-0.01385498046875
1702338751385444900,57.46444482421875,-0.00799560546875,0.0234375,-0.0133209228515625
1702338751484566000,57.56356591796875,-0.0085296630859375,0.0234375,-0.0133209228515625
1702338751583290400,57.66229028320313,-0.0090484619140625,0.0234375,-0.014373779296875
1702338751683327000,57.76232690429688,-0.0085296630859375,0.0229034423828125,-0.01385498046875
1702338751781532700,57.86053271484375,-0.0090484619140625,0.0229034423828125,-0.014373779296875
1702338751880653800,57.95965380859375,-0.00799560546875,0.0239715576171875,-0.0133209228515625
1702338751979774700,58.05877465820313,-0.00799560546875,0.0229034423828125,-0.0133209228515625
1702338752079140000,58.15814013671875,-0.0085296630859375,0.0234375,-0.0133209228515625
1702338752178322200,58.257322265625,-0.0085296630859375,0.0229034423828125,-0.0133209228515625
1702338752277443300,58.356443359375,-0.00799560546875,0.0234375,-0.012786865234375
1702338752376564200,58.45556420898438,-0.00799560546875,0.022369384765625,-0.0133209228515625
1702338752475472000,58.554471923828125,-0.0074615478515625,0.0234375,-0.012786865234375
1702338752574593000,58.653593017578125,-0.0085296630859375,0.022369384765625,-0.01385498046875
1702338752674110700,58.75311083984375,-0.00799560546875,0.0229034423828125,-0.012786865234375
1702338752773201400,58.852201416015625,-0.00799560546875,0.0229034423828125,-0.0133209228515625
1702338752871925800,58.95092578125,-0.0074615478515625,0.0234375,-0.0133209228515625
1702338752972420000,59.051420166015625,-0.00799560546875,0.0234375,-0.01385498046875
1702338753070198300,59.1491982421875,-0.00799560546875,0.0229034423828125,-0.01385498046875
1702338753169289000,59.2482890625,-0.0085296630859375,0.0229034423828125,-0.01385498046875
1702338753268410000,59.34741015625,-0.00799560546875,0.0207672119140625,-0.014373779296875
1702338753367836400,59.44683642578125,-0.00799560546875,0.022369384765625,-0.0133209228515625
1702338753466957300,59.54595727539063,-0.00799560546875,0.0229034423828125,-0.01385498046875
1702338753566078500,59.64507836914063,-0.00799560546875,0.022369384765625,-0.01385498046875
1702338753664894500,59.74389453125,-0.00799560546875,0.022369384765625,-0.0133209228515625
1702338753764229000,59.84322900390625,-0.00799560546875,0.0229034423828125,-0.012786865234375
1702338753863502800,59.9425029296875,-0.00799560546875,0.0229034423828125,-0.0133209228515625
1702338753962593300,60.04159326171875,-0.00799560546875,0.0229034423828125,-0.0133209228515625
1702338754061714400,60.14071435546875,-0.00799560546875,0.0239715576171875,-0.0133209228515625
1702338754160835600,60.239835693359375,-0.00799560546875,0.0234375,-0.0133209228515625
1702338754259956700,60.338956787109375,-0.00799560546875,0.0229034423828125,-0.012786865234375
1702338754359840800,60.4388408203125,-0.0090484619140625,0.0229034423828125,-0.012786865234375
1702338754458198800,60.53719873046875,-0.0085296630859375,0.0234375,-0.0133209228515625
1702338754557289500,60.63628955078125,-0.00799560546875,0.0239715576171875,-0.01385498046875
1702338754656441000,60.735441162109375,-0.0090484619140625,0.0229034423828125,-0.01385498046875
1702338754755562200,60.834562255859375,-0.0085296630859375,0.022369384765625,-0.012786865234375
1702338754854683100,60.93368310546875,-0.00799560546875,0.0229034423828125,-0.014373779296875
1702338754953713000,61.032712890625,-0.0085296630859375,0.0229034423828125,-0.01385498046875
1702338755052895000,61.13189501953125,-0.0085296630859375,0.022369384765625,-0.0133209228515625
1702338755152016100,61.23101611328125,-0.0085296630859375,0.0229034423828125,-0.0133209228515625
1702338755252693500,61.331693603515625,-0.0085296630859375,0.0239715576171875,-0.0133209228515625
1702338755350472000,61.429471923828125,-0.00799560546875,0.0229034423828125,-0.012786865234375
1702338755449592800,61.5285927734375,-0.00799560546875,0.0234375,-0.01385498046875
1702338755548469800,61.6274697265625,-0.00799560546875,0.0250396728515625,-0.01385498046875
1702338755647865600,61.72686547851563,-0.0085296630859375,0.0234375,-0.012786865234375
1702338755746956300,61.825956298828125,-0.00799560546875,0.0234375,-0.0133209228515625
1702338755846077200,61.9250771484375,-0.00799560546875,0.0229034423828125,-0.0133209228515625
1702338755945168000,62.02416796875,-0.0090484619140625,0.0234375,-0.01385498046875
1702338756044289000,62.1232890625,-0.00799560546875,0.0234375,-0.012786865234375
1702338756143440600,62.222440673828125,-0.0085296630859375,0.0229034423828125,-0.01385498046875
1702338756242012400,62.321012451171875,-0.0085296630859375,0.0234375,-0.0133209228515625
1702338756341133300,62.42013330078125,-0.00799560546875,0.0234375,-0.01385498046875
1702338756440681700,62.519681640625,-0.0085296630859375,0.024505615234375,-0.0149078369140625
1702338756539772400,62.6187724609375,-0.00799560546875,0.0234375,-0.0133209228515625
1702338756638496800,62.717496826171875,-0.00799560546875,0.0229034423828125,-0.01385498046875
1702338756738869000,62.81786889648438,-0.0085296630859375,0.0229034423828125,-0.012786865234375
1702338756836738800,62.91573876953125,-0.00799560546875,0.0229034423828125,-0.014373779296875
1702338756935829500,63.01482958984375,-0.00799560546875,0.022369384765625,-0.0149078369140625
1702338757034950700,63.11395068359375,-0.00799560546875,0.0229034423828125,-0.014373779296875
1702338757134438000,63.21343798828125,-0.0085296630859375,0.0229034423828125,-0.0133209228515625
1702338757233467400,63.31246728515625,-0.00799560546875,0.026092529296875,-0.0111846923828125
1702338757332558000,63.41155810546875,-0.00799560546875,0.026092529296875,-0.01171875
1702338757432320000,63.511320068359375,-0.00799560546875,0.0250396728515625,-0.012786865234375
1702338757530556200,63.60955615234375,-0.00799560546875,0.024505615234375,-0.012786865234375
1702338757630073900,63.709073974609375,-0.0074615478515625,0.0239715576171875,-0.01385498046875
1702338757729195000,63.808195068359375,-0.0090484619140625,0.0239715576171875,-0.014373779296875
1702338757827889000,63.906888916015625,-0.0085296630859375,0.022369384765625,-0.01385498046875
1702338757927193000,64.00619311523438,-0.0085296630859375,0.0239715576171875,-0.0133209228515625
1702338758026131000,64.105130859375,-0.00799560546875,0.0229034423828125,-0.012786865234375
1702338758125252000,64.20425219726563,-0.0090484619140625,0.0229034423828125,-0.012786865234375
1702338758224342800,64.3033427734375,-0.00799560546875,0.022369384765625,-0.014373779296875
1702338758323555300,64.40255541992188,-0.0085296630859375,0.0229034423828125,-0.014373779296875
1702338758422981600,64.50198168945313,-0.00799560546875,0.022369384765625,-0.0133209228515625
1702338758521950200,64.6009501953125,-0.00799560546875,0.022369384765625,-0.0133209228515625
1702338758620857600,64.69985766601563,-0.0085296630859375,0.0218353271484375,-0.0133209228515625
1702338758720222700,64.79922265625,-0.00799560546875,0.022369384765625,-0.0133209228515625
1702338758819404800,64.89840478515625,-0.0090484619140625,0.0239715576171875,-0.0133209228515625
1702338758918495500,64.99749560546876,-0.00799560546875,0.024505615234375,-0.012786865234375
1702338759017616600,65.09661669921876,-0.0085296630859375,0.0239715576171875,-0.012786865234375
1702338759116737800,65.19573779296876,-0.0074615478515625,0.024505615234375,-0.0122528076171875
1702338759215797800,65.2947978515625,-0.00799560546875,0.0250396728515625,-0.0122528076171875
1702338759314827300,65.3938271484375,-0.00799560546875,0.0239715576171875,-0.012786865234375
1702338759414070500,65.49307055664063,-0.00799560546875,0.022369384765625,-0.01385498046875
1702338759513191400,65.59219140625,-0.0085296630859375,0.022369384765625,-0.0133209228515625
1702338759612312600,65.6913125,-0.0074615478515625,0.022369384765625,-0.01385498046875
1702338759711433700,65.79043383789063,-0.00799560546875,0.0234375,-0.0133209228515625
1702338759810555000,65.88955493164063,-0.0085296630859375,0.0239715576171875,-0.012786865234375
1702338759909767400,65.98876733398437,-0.00799560546875,0.0229034423828125,-0.01385498046875
1702338760009254700,66.08825463867187,-0.00799560546875,0.0239715576171875,-0.01385498046875
1702338760107887600,66.1868876953125,-0.0090484619140625,0.0239715576171875,-0.01385498046875
1702338760207222300,66.28622216796875,-0.00799560546875,0.0234375,-0.01385498046875
1702338760306313000,66.38531298828126,-0.0085296630859375,0.022369384765625,-0.01385498046875
1702338760405464600,66.48446459960938,-0.00799560546875,0.022369384765625,-0.01385498046875
1702338760504036400,66.58303637695313,-0.00799560546875,0.022369384765625,-0.01385498046875
1702338760603828700,66.68282885742188,-0.0085296630859375,0.022369384765625,-0.01385498046875
1702338760702827800,66.78182788085938,-0.0085296630859375,0.0218353271484375,-0.0133209228515625
1702338760801949000,66.88094897460938,-0.0085296630859375,0.0218353271484375,-0.01385498046875
1702338760902382300,66.98138232421876,-0.00799560546875,0.0229034423828125,-0.014373779296875
1702338761000435200,67.07943530273438,-0.00799560546875,0.0229034423828125,-0.0133209228515625
1702338761099312000,67.17831201171875,-0.00799560546875,0.0229034423828125,-0.01385498046875
1702338761198162700,67.27716259765624,-0.00799560546875,0.024505615234375,-0.0133209228515625
1702338761296948000,67.37594799804687,-0.0085296630859375,0.022369384765625,-0.0133209228515625
1702338761396343800,67.47534375,-0.0085296630859375,0.022369384765625,-0.0133209228515625
1702338761495556400,67.57455639648437,-0.006927490234375,0.0234375,-0.01385498046875
1702338761594647000,67.67364697265624,-0.0074615478515625,0.022369384765625,-0.01385498046875
1702338761693676500,67.77267651367187,-0.0085296630859375,0.0229034423828125,-0.01385498046875
1702338761792523000,67.87152294921874,-0.0085296630859375,0.0229034423828125,-0.014373779296875
1702338761891644000,67.97064379882812,-0.00799560546875,0.0229034423828125,-0.01385498046875
1702338761990765000,68.06976513671874,-0.0074615478515625,0.0234375,-0.012786865234375
1702338762090191400,68.16919140625,-0.0085296630859375,0.024505615234375,-0.01385498046875
1702338762189190400,68.2681904296875,-0.0090484619140625,0.0239715576171875,-0.0133209228515625
1702338762288372500,68.36737255859374,-0.00799560546875,0.0234375,-0.0133209228515625
1702338762387280100,68.46628002929687,-0.00799560546875,0.0229034423828125,-0.0133209228515625
1702338762486370600,68.56537060546874,-0.0085296630859375,0.0229034423828125,-0.0133209228515625
1702338762585461200,68.66446118164062,-0.0085296630859375,0.0239715576171875,-0.012786865234375
1702338762684918000,68.76391796875,-0.0074615478515625,0.0234375,-0.0133209228515625
1702338762784100000,68.86310009765624,-0.0085296630859375,0.0229034423828125,-0.01385498046875
1702338762882946600,68.96194653320312,-0.0085296630859375,0.022369384765625,-0.01385498046875
1702338762982739000,69.06173901367187,-0.0085296630859375,0.022369384765625,-0.0133209228515625
1702338763081097200,69.16009716796874,-0.0085296630859375,0.022369384765625,-0.0133209228515625
1702338763180157200,69.2591572265625,-0.00799560546875,0.0234375,-0.01385498046875
1702338763279278300,69.3582783203125,-0.0074615478515625,0.0239715576171875,-0.0133209228515625
1702338763378582500,69.45758251953124,-0.0074615478515625,0.0234375,-0.01385498046875
1702338763477825500,69.55682543945312,-0.00799560546875,0.0234375,-0.0133209228515625
1702338763576946700,69.65594677734374,-0.00799560546875,0.0229034423828125,-0.0133209228515625
1702338763676190000,69.75518994140624,-0.0085296630859375,0.022369384765625,-0.0133209228515625
1702338763775707600,69.85470776367187,-0.0085296630859375,0.0234375,-0.014373779296875
1702338763874432000,69.95343188476562,-0.0074615478515625,0.0229034423828125,-0.01385498046875
1702338763973583600,70.05258349609375,-0.00799560546875,0.0239715576171875,-0.0133209228515625
1702338764072643800,70.15164379882812,-0.00799560546875,0.0229034423828125,-0.01385498046875
1702338764171765000,70.25076489257812,-0.0085296630859375,0.0234375,-0.0133209228515625
1702338764270489300,70.3494892578125,-0.0074615478515625,0.0229034423828125,-0.01385498046875
1702338764370190000,70.44919018554687,-0.00799560546875,0.0234375,-0.01385498046875
1702338764469097700,70.54809765625,-0.00799560546875,0.0234375,-0.014373779296875
1702338764568218600,70.64721850585937,-0.00799560546875,0.0234375,-0.0133209228515625
1702338764667370200,70.74637036132812,-0.0074615478515625,0.0229034423828125,-0.0133209228515625
1702338764766461000,70.8454609375,-0.0074615478515625,0.0239715576171875,-0.0133209228515625
1702338764865582000,70.94458203125,-0.0085296630859375,0.0229034423828125,-0.01385498046875
1702338764964459000,71.043458984375,-0.0074615478515625,0.0234375,-0.012786865234375
1702338765063793700,71.14279370117187,-0.0085296630859375,0.0239715576171875,-0.012786865234375
1702338765163586000,71.2425859375,-0.0085296630859375,0.0234375,-0.012786865234375
1702338765262249500,71.34124951171874,-0.0085296630859375,0.0229034423828125,-0.01385498046875
1702338765361340200,71.44034008789062,-0.0085296630859375,0.0234375,-0.0133209228515625
1702338765460461000,71.5394609375,-0.0074615478515625,0.0234375,-0.0133209228515625
1702338765559521300,71.63852124023437,-0.0074615478515625,0.0234375,-0.012786865234375
1702338765658733800,71.73773388671874,-0.0085296630859375,0.0234375,-0.0133209228515625
1702338765757794000,71.8367939453125,-0.00799560546875,0.022369384765625,-0.014373779296875
1702338765856915000,71.9359150390625,-0.00799560546875,0.0239715576171875,-0.01385498046875
1702338765956066600,72.03506665039062,-0.006927490234375,0.0234375,-0.0133209228515625
1702338766055187700,72.13418774414062,-0.0074615478515625,0.0234375,-0.01385498046875
1702338766154278400,72.2332783203125,-0.00799560546875,0.022369384765625,-0.0133209228515625
1702338766252911000,72.3319111328125,-0.0074615478515625,0.0229034423828125,-0.0133209228515625
1702338766352062700,72.43106274414062,-0.0085296630859375,0.0229034423828125,-0.01385498046875
1702338766451397400,72.5303974609375,-0.0085296630859375,0.0218353271484375,-0.01385498046875
1702338766550640600,72.629640625,-0.00799560546875,0.02130126953125,-0.01385498046875
1702338766649365000,72.72836499023437,-0.00799560546875,0.0229034423828125,-0.01385498046875
1702338766749218600,72.82821850585937,-0.0085296630859375,0.0234375,-0.01385498046875
1702338766847607000,72.92660693359375,-0.0085296630859375,0.0239715576171875,-0.01385498046875
1702338766946728200,73.02572827148437,-0.00799560546875,0.0239715576171875,-0.0133209228515625
1702338767045819000,73.12481884765624,-0.0085296630859375,0.0229034423828125,-0.0133209228515625
1702338767145123000,73.224123046875,-0.0085296630859375,0.022369384765625,-0.01385498046875
1702338767244366000,73.32336596679687,-0.0085296630859375,0.022369384765625,-0.0133209228515625
1702338767344097500,73.42309765625,-0.00799560546875,0.0239715576171875,-0.0122528076171875
1702338767443096600,73.5220966796875,-0.00799560546875,0.0234375,-0.012786865234375
1702338767541424400,73.62042431640624,-0.0090484619140625,0.024505615234375,-0.01385498046875
1702338767640545300,73.71954516601562,-0.0085296630859375,0.024505615234375,-0.01385498046875
1702338767740002000,73.819001953125,-0.00799560546875,0.0234375,-0.01385498046875
1702338767839184400,73.91818432617187,-0.00799560546875,0.0229034423828125,-0.014373779296875
1702338767937939200,74.01693920898437,-0.00799560546875,0.020233154296875,-0.0149078369140625
1702338768038250500,74.11725048828124,-0.0085296630859375,0.02130126953125,-0.014373779296875
1702338768136181200,74.21518115234375,-0.00799560546875,0.02130126953125,-0.01385498046875
1702338768235272000,74.31427197265624,-0.0085296630859375,0.0229034423828125,-0.0133209228515625
1702338768334393000,74.41339306640624,-0.00799560546875,0.0229034423828125,-0.01385498046875
1702338768433758200,74.51275830078124,-0.0085296630859375,0.0234375,-0.01385498046875
1702338768532971000,74.61197094726562,-0.0074615478515625,0.0239715576171875,-0.0122528076171875
1702338768632122600,74.71112255859374,-0.00799560546875,0.0239715576171875,-0.0133209228515625
1702338768731030000,74.81003002929687,-0.0085296630859375,0.0239715576171875,-0.0133209228515625
1702338768830425900,74.90942578125,-0.00799560546875,0.0218353271484375,-0.0133209228515625
1702338768929577500,75.00857739257812,-0.0085296630859375,0.0229034423828125,-0.012786865234375
1702338769028668000,75.10766796875,-0.00799560546875,0.024505615234375,-0.01385498046875
1702338769127789000,75.2067890625,-0.0085296630859375,0.0234375,-0.01385498046875
1702338769226910200,75.30591015625,-0.00799560546875,0.0218353271484375,-0.01385498046875
1702338769325909200,75.4049091796875,-0.0085296630859375,0.022369384765625,-0.01385498046875
1702338769425762600,75.50476245117187,-0.00799560546875,0.0239715576171875,-0.0133209228515625
1702338769524273400,75.6032734375,-0.00799560546875,0.0229034423828125,-0.0133209228515625
1702338769623394600,75.70239453125,-0.00799560546875,0.0159759521484375,-0.0090484619140625
1702338769722515700,75.801515625,-0.0090484619140625,0.0207672119140625,-0.014373779296875
1702338769821667300,75.90066723632812,-0.00799560546875,0.022369384765625,-0.0159759521484375
1702338769920788200,75.99978833007812,-0.00799560546875,0.022369384765625,-0.014373779296875
1702338770019848400,76.09884838867187,-0.0085296630859375,0.0234375,-0.0122528076171875
1702338770119030500,76.19803051757812,-0.0090484619140625,0.0266265869140625,-0.012786865234375
1702338770219128000,76.29812817382812,-0.00799560546875,0.02557373046875,-0.01385498046875
1702338770317394700,76.39639477539062,-0.0074615478515625,0.024505615234375,-0.01385498046875
1702338770416607500,76.495607421875,-0.0085296630859375,0.0234375,-0.0149078369140625
1702338770515728400,76.59472827148437,-0.0074615478515625,0.0218353271484375,-0.01385498046875
1702338770614483500,76.6934833984375,-0.00799560546875,0.022369384765625,-0.01385498046875
1702338770713940200,76.79294018554687,-0.0085296630859375,0.0250396728515625,-0.01385498046875
1702338770813061400,76.89206127929687,-0.00799560546875,0.0250396728515625,-0.01385498046875
1702338770912182300,76.99118237304687,-0.00799560546875,0.0234375,-0.01385498046875
1702338771011334000,77.090333984375,-0.0074615478515625,0.0218353271484375,-0.0133209228515625
1702338771110455000,77.189455078125,-0.0085296630859375,0.02130126953125,-0.0133209228515625
1702338771209606700,77.28860668945312,-0.00799560546875,0.0250396728515625,-0.0111846923828125
1702338771308209000,77.387208984375,-0.0074615478515625,0.0239715576171875,-0.01171875
1702338771407330000,77.486330078125,-0.0074615478515625,0.0239715576171875,-0.0133209228515625
1702338771506848000,77.58584790039062,-0.0085296630859375,0.0234375,-0.01385498046875
1702338771605999400,77.68499926757812,-0.00799560546875,0.0229034423828125,-0.014373779296875
1702338771704724000,77.78372387695312,-0.00799560546875,0.022369384765625,-0.014373779296875
1702338771804791000,77.883791015625,-0.0085296630859375,0.0229034423828125,-0.01385498046875
1702338771902996500,77.98199658203124,-0.0085296630859375,0.0239715576171875,-0.0133209228515625
1702338772002087200,78.08108715820312,-0.00799560546875,0.0229034423828125,-0.0122528076171875
1702338772101177600,78.18017749023437,-0.0085296630859375,0.0234375,-0.012786865234375
1702338772200451300,78.27945141601562,-0.0085296630859375,0.0234375,-0.01385498046875
1702338772299694600,78.37869458007812,-0.0090484619140625,0.0229034423828125,-0.014373779296875
1702338772398937600,78.4779375,-0.00799560546875,0.0234375,-0.012786865234375
1702338772498241800,78.57724169921875,-0.00799560546875,0.0234375,-0.0133209228515625
1702338772596813800,78.67581372070312,-0.00799560546875,0.0239715576171875,-0.012786865234375
1702338772696056800,78.77505688476562,-0.0074615478515625,0.022369384765625,-0.012786865234375
1702338772795422200,78.87442211914062,-0.00799560546875,0.0239715576171875,-0.01385498046875
1702338772894573800,78.97357373046874,-0.0074615478515625,0.022369384765625,-0.01385498046875
1702338772993298200,79.07229809570312,-0.00958251953125,0.022369384765625,-0.0133209228515625
1702338773093823000,79.17282299804687,-0.00799560546875,0.0218353271484375,-0.0133209228515625
1702338773191509800,79.270509765625,-0.00799560546875,0.0229034423828125,-0.014373779296875
1702338773290631000,79.369630859375,-0.00799560546875,0.0218353271484375,-0.01385498046875
1702338773389751800,79.46875170898437,-0.00799560546875,0.0229034423828125,-0.01385498046875
1702338773489208800,79.56820874023437,-0.0074615478515625,0.0229034423828125,-0.0133209228515625
1702338773588329700,79.66732983398437,-0.0085296630859375,0.0229034423828125,-0.01385498046875
1702338773687512000,79.76651196289062,-0.00958251953125,0.0229034423828125,-0.01385498046875
1702338773786450000,79.86544995117187,-0.0074615478515625,0.0229034423828125,-0.01385498046875
1702338773885784600,79.96478466796874,-0.0085296630859375,0.0239715576171875,-0.0133209228515625
1702338773984905700,80.06390576171874,-0.00799560546875,0.0234375,-0.012786865234375
1702338774084027000,80.16302685546874,-0.0085296630859375,0.0229034423828125,-0.0133209228515625
1702338774183148000,80.26214794921874,-0.00799560546875,0.0234375,-0.01385498046875
1702338774282269000,80.36126904296874,-0.0074615478515625,0.022369384765625,-0.0133209228515625
1702338774381420500,80.46042065429687,-0.00799560546875,0.0234375,-0.0133209228515625
1702338774481304600,80.5603046875,-0.0085296630859375,0.0229034423828125,-0.01385498046875
1702338774579662800,80.65866284179687,-0.00799560546875,0.0229034423828125,-0.012786865234375
1702338774678784000,80.75778393554687,-0.00799560546875,0.0234375,-0.0133209228515625
1702338774777874400,80.85687451171874,-0.00799560546875,0.0229034423828125,-0.0133209228515625
1702338774877026000,80.95602612304687,-0.0085296630859375,0.0229034423828125,-0.0133209228515625
1702338774976177700,81.055177734375,-0.0085296630859375,0.0229034423828125,-0.01385498046875
1702338775075207200,81.15420727539062,-0.0085296630859375,0.0234375,-0.01385498046875
1702338775174603000,81.25360302734374,-0.0074615478515625,0.0234375,-0.01385498046875
1702338775273754600,81.35275463867187,-0.00799560546875,0.0229034423828125,-0.01385498046875
1702338775372875800,81.45187573242187,-0.0085296630859375,0.0229034423828125,-0.0133209228515625
1702338775471997000,81.55099682617187,-0.0085296630859375,0.0234375,-0.012786865234375
1702338775570995700,81.64999560546875,-0.00799560546875,0.0234375,-0.014373779296875
1702338775670574600,81.74957470703124,-0.00799560546875,0.0229034423828125,-0.0133209228515625
1702338775769360100,81.84836010742187,-0.00799560546875,0.0229034423828125,-0.01385498046875
1702338775868847400,81.94784741210937,-0.0085296630859375,0.0229034423828125,-0.01385498046875
1702338775967602200,82.04660229492187,-0.006927490234375,0.0218353271484375,-0.014373779296875
1702338776066723300,82.14572338867187,-0.00799560546875,0.022369384765625,-0.01385498046875
1702338776165844500,82.24484448242187,-0.00799560546875,0.02557373046875,-0.0170440673828125
1702338776264874000,82.3438740234375,-0.00799560546875,0.0239715576171875,-0.014373779296875
1702338776363523800,82.44252392578124,-0.00799560546875,0.0239715576171875,-0.012786865234375
1702338776462797300,82.54179736328125,-0.0074615478515625,0.0239715576171875,-0.01385498046875
1702338776562193200,82.64119311523437,-0.00799560546875,0.0239715576171875,-0.0122528076171875
1702338776661283800,82.74028393554687,-0.00799560546875,0.0234375,-0.0133209228515625
1702338776760008200,82.83900830078124,-0.0085296630859375,0.0229034423828125,-0.0133209228515625
1702338776860288800,82.93928881835937,-0.0085296630859375,0.022369384765625,-0.0133209228515625
1702338776958250200,83.03725024414062,-0.0090484619140625,0.0229034423828125,-0.0133209228515625
1702338777057371400,83.13637133789062,-0.0085296630859375,0.022369384765625,-0.0133209228515625
1702338777156462000,83.23546215820312,-0.00799560546875,0.022369384765625,-0.0133209228515625
1702338777255827200,83.3348271484375,-0.0085296630859375,0.0234375,-0.01385498046875
1702338777355009300,83.43400927734375,-0.00799560546875,0.022369384765625,-0.01385498046875
1702338777454252500,83.53325244140625,-0.00799560546875,0.0229034423828125,-0.01385498046875
1702338777553801000,83.63280102539062,-0.0085296630859375,0.0229034423828125,-0.0133209228515625
1702338777652098000,83.73109814453124,-0.00799560546875,0.0229034423828125,-0.01385498046875
1702338777751493600,83.83049365234375,-0.00799560546875,0.022369384765625,-0.0133209228515625
1702338777850706400,83.92970654296874,-0.0085296630859375,0.0229034423828125,-0.01385498046875
1702338777949827300,84.02882739257812,-0.00799560546875,0.0234375,-0.01385498046875
1702338778048643300,84.12764331054687,-0.00799560546875,0.0234375,-0.01385498046875
1702338778147672800,84.2266728515625,-0.0085296630859375,0.0234375,-0.01385498046875
1702338778246763500,84.32576342773437,-0.00799560546875,0.022369384765625,-0.012786865234375
1702338778345884700,84.424884765625,-0.0085296630859375,0.0234375,-0.0133209228515625
1702338778445005600,84.52400561523437,-0.00799560546875,0.0234375,-0.012786865234375
1702338778544431900,84.62343188476562,-0.006927490234375,0.0229034423828125,-0.012786865234375
1702338778643553000,84.72255297851562,-0.00799560546875,0.022369384765625,-0.01385498046875
1702338778742765600,84.821765625,-0.0085296630859375,0.0239715576171875,-0.01385498046875
1702338778841856300,84.92085620117187,-0.00799560546875,0.0234375,-0.01385498046875
1702338778941038300,85.02003833007812,-0.0085296630859375,0.0239715576171875,-0.0133209228515625
1702338779040159500,85.11915942382812,-0.0085296630859375,0.0234375,-0.014373779296875
1702338779139280600,85.21828076171874,-0.00799560546875,0.0218353271484375,-0.012786865234375
1702338779238401800,85.31740185546874,-0.00799560546875,0.024505615234375,-0.0133209228515625
1702338779337522700,85.41652270507812,-0.0074615478515625,0.022369384765625,-0.01385498046875
1702338779436460800,85.51546069335937,-0.0085296630859375,0.0229034423828125,-0.0133209228515625
1702338779535765000,85.61476489257812,-0.0085296630859375,0.0229034423828125,-0.0133209228515625
1702338779634886100,85.71388623046874,-0.0085296630859375,0.0229034423828125,-0.01385498046875
1702338779734037800,85.81303784179687,-0.0085296630859375,0.0234375,-0.012786865234375
1702338779833097700,85.91209765625,-0.00799560546875,0.0239715576171875,-0.014373779296875
1702338779932249300,86.01124926757812,-0.00799560546875,0.0234375,-0.0133209228515625
1702338780031401000,86.11040087890625,-0.0085296630859375,0.0239715576171875,-0.01385498046875
1702338780130705200,86.209705078125,-0.0085296630859375,0.0229034423828125,-0.014373779296875
1702338780229673700,86.308673828125,-0.0085296630859375,0.0229034423828125,-0.0133209228515625
1702338780328855800,86.40785571289062,-0.0085296630859375,0.0239715576171875,-0.012786865234375
1702338780428007400,86.50700732421875,-0.0085296630859375,0.0229034423828125,-0.0133209228515625
1702338780527128600,86.60612866210937,-0.00799560546875,0.0229034423828125,-0.01385498046875
1702338780626066400,86.70506640625,-0.00799560546875,0.0229034423828125,-0.0133209228515625
1702338780725248500,86.80424853515625,-0.00799560546875,0.0234375,-0.0133209228515625
1702338780824461300,86.90346142578124,-0.0085296630859375,0.0239715576171875,-0.014373779296875
1702338780923582200,87.00258227539062,-0.0090484619140625,0.0229034423828125,-0.01385498046875
1702338781022703400,87.10170336914062,-0.0085296630859375,0.022369384765625,-0.01385498046875
1702338781121824500,87.20082446289062,-0.0085296630859375,0.022369384765625,-0.0133209228515625
1702338781220945700,87.29994555664062,-0.00799560546875,0.0234375,-0.01385498046875
1702338781319639600,87.3986396484375,-0.0085296630859375,0.0239715576171875,-0.0133209228515625
1702338781418607900,87.49760791015625,-0.00799560546875,0.0239715576171875,-0.012786865234375
1702338781517729000,87.59672900390625,-0.00799560546875,0.0234375,-0.0133209228515625
1702338781617247000,87.6962470703125,-0.0085296630859375,0.0234375,-0.012786865234375
1702338781716368000,87.79536791992187,-0.0085296630859375,0.0234375,-0.0133209228515625
1702338781815153400,87.8941533203125,-0.0074615478515625,0.0229034423828125,-0.0133209228515625
1702338781914213400,87.99321337890625,-0.0085296630859375,0.022369384765625,-0.0133209228515625
1702338782013334500,88.09233447265625,-0.00799560546875,0.0234375,-0.014373779296875
1702338782112455700,88.19145556640625,-0.0085296630859375,0.0234375,-0.0133209228515625
1702338782211515600,88.290515625,-0.0074615478515625,0.0234375,-0.0133209228515625
1702338782310881000,88.38988110351562,-0.006927490234375,0.0234375,-0.0133209228515625
1702338782410154500,88.48915454101562,-0.00799560546875,0.0229034423828125,-0.0133209228515625
1702338782509580800,88.58858081054687,-0.0085296630859375,0.0234375,-0.01385498046875
1702338782607969500,88.68696948242187,-0.00799560546875,0.0239715576171875,-0.0133209228515625
1702338782707060200,88.78606030273437,-0.0085296630859375,0.0239715576171875,-0.012786865234375
1702338782806486300,88.885486328125,-0.00799560546875,0.0229034423828125,-0.01385498046875
1702338782905699000,88.98469897460937,-0.00799560546875,0.0234375,-0.01385498046875
1702338783004393000,89.08339306640624,-0.00799560546875,0.0239715576171875,-0.0133209228515625
1702338783104215800,89.1832158203125,-0.0090484619140625,0.0234375,-0.0133209228515625
1702338783202574000,89.28157397460937,-0.0085296630859375,0.0234375,-0.0133209228515625
1702338783301695200,89.3806953125,-0.0090484619140625,0.022369384765625,-0.0133209228515625
1702338783400816000,89.47981616210937,-0.00799560546875,0.0234375,-0.014373779296875
1702338783500151000,89.57915112304687,-0.0090484619140625,0.0234375,-0.0133209228515625
1702338783599302700,89.678302734375,-0.0085296630859375,0.0239715576171875,-0.01385498046875
1702338783698484700,89.77748461914062,-0.0085296630859375,0.022369384765625,-0.012786865234375
1702338783797697300,89.876697265625,-0.00799560546875,0.0229034423828125,-0.0133209228515625
1702338783897184500,89.9761845703125,-0.00799560546875,0.022369384765625,-0.0133209228515625
1702338783995756300,90.07475634765625,-0.00799560546875,0.0229034423828125,-0.0149078369140625
1702338784094877400,90.17387744140625,-0.0085296630859375,0.0234375,-0.01385498046875
1702338784193968000,90.27296801757812,-0.00799560546875,0.0229034423828125,-0.0133209228515625
1702338784293058600,90.37205859375,-0.0085296630859375,0.0234375,-0.012786865234375
1702338784391813600,90.47081372070312,-0.00799560546875,0.0234375,-0.01385498046875
1702338784491667000,90.5706669921875,-0.0074615478515625,0.0239715576171875,-0.014373779296875
1702338784590360800,90.66936083984375,-0.0085296630859375,0.0239715576171875,-0.014373779296875
1702338784689482000,90.76848193359375,-0.0085296630859375,0.0234375,-0.01385498046875
1702338784788572700,90.86757275390624,-0.00799560546875,0.0234375,-0.012786865234375
1702338784887693600,90.96669360351562,-0.0090484619140625,0.022369384765625,-0.0133209228515625
1702338784986753800,91.06575390625,-0.0074615478515625,0.0239715576171875,-0.0133209228515625
1702338785085752800,91.1647529296875,-0.0074615478515625,0.0229034423828125,-0.012786865234375
1702338785185179100,91.26417919921874,-0.0085296630859375,0.0234375,-0.012786865234375
1702338785284513800,91.363513671875,-0.00799560546875,0.0239715576171875,-0.0122528076171875
1702338785383360300,91.4623603515625,-0.0085296630859375,0.0234375,-0.0133209228515625
1702338785482481200,91.56148120117187,-0.0085296630859375,0.0229034423828125,-0.012786865234375
1702338785582121200,91.66112133789062,-0.0085296630859375,0.0234375,-0.0133209228515625
1702338785680998100,91.759998046875,-0.00799560546875,0.0229034423828125,-0.0133209228515625
1702338785779844600,91.8588447265625,-0.0085296630859375,0.0229034423828125,-0.014373779296875
1702338785879484400,91.958484375,-0.0085296630859375,0.0234375,-0.0133209228515625
1702338785978025700,92.05702563476562,-0.00799560546875,0.0234375,-0.0133209228515625
1702338786077147000,92.15614697265624,-0.00799560546875,0.0229034423828125,-0.0133209228515625
1702338786176267800,92.25526782226562,-0.00799560546875,0.0229034423828125,-0.01385498046875
1702338786275358500,92.3543583984375,-0.0085296630859375,0.0229034423828125,-0.01385498046875
1702338786374723600,92.4537236328125,-0.0085296630859375,0.0234375,-0.0133209228515625
1702338786473417500,92.55241748046875,-0.0085296630859375,0.022369384765625,-0.01385498046875
1702338786572569000,92.65156909179687,-0.00799560546875,0.0234375,-0.0133209228515625
1702338786671690200,92.75069018554687,-0.00799560546875,0.0234375,-0.01385498046875
1702338786770384100,92.84938403320312,-0.0074615478515625,0.0239715576171875,-0.01385498046875
1702338786870695400,92.9496953125,-0.00799560546875,0.0239715576171875,-0.01385498046875
1702338786968626200,93.04762622070312,-0.00799560546875,0.0229034423828125,-0.0133209228515625
1702338787067716900,93.146716796875,-0.00799560546875,0.0234375,-0.012786865234375
1702338787166776800,93.24577685546875,-0.00799560546875,0.022369384765625,-0.0133209228515625
1702338787266111700,93.34511181640624,-0.0085296630859375,0.022369384765625,-0.012786865234375
1702338787365293800,93.4442939453125,-0.00799560546875,0.0239715576171875,-0.0133209228515625
1702338787464536800,93.54353686523437,-0.0085296630859375,0.0229034423828125,-0.01385498046875
1702338787564177000,93.64317700195312,-0.0085296630859375,0.0229034423828125,-0.014373779296875
1702338787662321400,93.7413212890625,-0.0085296630859375,0.0234375,-0.0133209228515625
1702338787761747700,93.84074780273437,-0.0074615478515625,0.0234375,-0.0133209228515625
1702338787860899300,93.9398994140625,-0.00799560546875,0.0234375,-0.0133209228515625
1702338787959623700,94.03862377929687,-0.00799560546875,0.0229034423828125,-0.0133209228515625
1702338788059080400,94.13808056640624,-0.00799560546875,0.0229034423828125,-0.01385498046875
1702338788157804800,94.2368046875,-0.00799560546875,0.022369384765625,-0.01385498046875
1702338788256895200,94.33589526367187,-0.0085296630859375,0.0229034423828125,-0.0133209228515625
1702338788356016400,94.43501635742187,-0.00799560546875,0.0234375,-0.01385498046875
1702338788455351000,94.53435107421875,-0.0085296630859375,0.022369384765625,-0.01385498046875
1702338788554502700,94.63350268554687,-0.0074615478515625,0.0229034423828125,-0.014373779296875
1702338788653746000,94.73274584960937,-0.0085296630859375,0.0234375,-0.012786865234375
1702338788752714500,94.83171459960937,-0.0085296630859375,0.0229034423828125,-0.012786865234375
1702338788852140800,94.93114086914062,-0.0085296630859375,0.0234375,-0.0133209228515625
1702338788950956500,95.02995654296875,-0.0074615478515625,0.0234375,-0.014373779296875
1702338789050047200,95.12904711914062,-0.0085296630859375,0.0229034423828125,-0.01385498046875
1702338789149168400,95.22816845703124,-0.0090484619140625,0.0234375,-0.0133209228515625
1702338789248258800,95.3272587890625,-0.0085296630859375,0.0229034423828125,-0.0133209228515625
1702338789347013600,95.426013671875,-0.00799560546875,0.0239715576171875,-0.01385498046875
1702338789446562000,95.52556201171875,-0.00799560546875,0.0234375,-0.0133209228515625
1702338789545530600,95.62453051757812,-0.00799560546875,0.0229034423828125,-0.014373779296875
1702338789644621000,95.72362109375,-0.00799560546875,0.0229034423828125,-0.0133209228515625
1702338789743742200,95.8227421875,-0.00799560546875,0.0234375,-0.0133209228515625
1702338789842833000,95.9218330078125,-0.0090484619140625,0.0234375,-0.0133209228515625
1702338789941923300,96.02092333984375,-0.0085296630859375,0.0229034423828125,-0.012786865234375
1702338790040761000,96.11976098632813,-0.00799560546875,0.0229034423828125,-0.0133209228515625
1702338790140126200,96.21912622070313,-0.0085296630859375,0.022369384765625,-0.01385498046875
1702338790239400000,96.31839990234376,-0.00799560546875,0.0234375,-0.01385498046875
1702338790338521000,96.41752099609376,-0.0085296630859375,0.0229034423828125,-0.01385498046875
1702338790437611800,96.51661181640625,-0.00799560546875,0.0229034423828125,-0.01385498046875
1702338790536702200,96.6157021484375,-0.00799560546875,0.022369384765625,-0.01385498046875
1702338790635853800,96.71485375976563,-0.00799560546875,0.0229034423828125,-0.01385498046875
1702338790734944500,96.81394458007813,-0.00799560546875,0.0229034423828125,-0.01385498046875
1702338790834065400,96.9130654296875,-0.0085296630859375,0.0239715576171875,-0.01385498046875
1702338790933125600,97.01212573242188,-0.00799560546875,0.0229034423828125,-0.01385498046875
1702338791032246800,97.11124682617188,-0.0085296630859375,0.0234375,-0.0133209228515625
1702338791131337200,97.21033715820313,-0.00799560546875,0.0229034423828125,-0.01385498046875
1702338791230519300,97.30951928710938,-0.0085296630859375,0.0229034423828125,-0.0133209228515625
1702338791329579500,97.40857958984375,-0.0074615478515625,0.0229034423828125,-0.01385498046875
1702338791428670000,97.507669921875,-0.0085296630859375,0.0234375,-0.01385498046875
1702338791527638500,97.60663842773438,-0.00799560546875,0.0229034423828125,-0.01385498046875
1702338791626729000,97.70572900390626,-0.00799560546875,0.0239715576171875,-0.014373779296875
1702338791725880600,97.80488061523438,-0.0090484619140625,0.0229034423828125,-0.01385498046875
1702338791825520600,97.90452075195313,-0.00799560546875,0.0229034423828125,-0.0149078369140625
1702338791923665200,98.0026650390625,-0.0085296630859375,0.0234375,-0.01385498046875
1702338792022786300,98.10178637695313,-0.0085296630859375,0.0234375,-0.014373779296875
1702338792121846300,98.20084619140626,-0.00799560546875,0.0234375,-0.0133209228515625
1702338792221211400,98.30021142578126,-0.00799560546875,0.022369384765625,-0.0133209228515625
1702338792320302000,98.39930200195313,-0.00799560546875,0.022369384765625,-0.0133209228515625
1702338792419575800,98.49857592773438,-0.00799560546875,0.0229034423828125,-0.01385498046875
1702338792519032600,98.59803247070313,-0.00799560546875,0.0229034423828125,-0.0133209228515625
1702338792617360100,98.69636010742188,-0.00799560546875,0.0229034423828125,-0.0122528076171875
1702338792716725500,98.7957255859375,-0.0085296630859375,0.0239715576171875,-0.01385498046875
1702338792815968500,98.89496850585938,-0.00799560546875,0.0229034423828125,-0.0133209228515625
1702338792915059200,98.99405908203126,-0.0085296630859375,0.0239715576171875,-0.01385498046875
1702338793013875200,99.09287524414063,-0.0085296630859375,0.0229034423828125,-0.012786865234375
1702338793112904700,99.19190478515625,-0.00799560546875,0.0239715576171875,-0.0133209228515625
1702338793211934200,99.29093432617188,-0.00799560546875,0.0234375,-0.01385498046875
1702338793311055400,99.39005541992188,-0.0085296630859375,0.0234375,-0.0133209228515625
1702338793410207000,99.48920703125,-0.0085296630859375,0.0234375,-0.01385498046875
1702338793509572000,99.58857202148438,-0.0085296630859375,0.0239715576171875,-0.0133209228515625
1702338793608693200,99.687693359375,-0.00799560546875,0.0234375,-0.0133209228515625
1702338793707875300,99.78687524414063,-0.00799560546875,0.0229034423828125,-0.0133209228515625
1702338793806874400,99.88587426757813,-0.00799560546875,0.0229034423828125,-0.012786865234375
1702338793906087000,99.9850869140625,-0.00799560546875,0.0234375,-0.01385498046875
1702338794005208000,100.0842080078125,-0.0074615478515625,0.0234375,-0.01385498046875
1702338794104329200,100.1833291015625,-0.00799560546875,0.0234375,-0.0133209228515625
1702338794203419600,100.28241967773438,-0.0085296630859375,0.022369384765625,-0.012786865234375
1702338794302480000,100.38147998046875,-0.00799560546875,0.0234375,-0.01385498046875
1702338794402028000,100.48102807617188,-0.00799560546875,0.0218353271484375,-0.0133209228515625
1702338794500722000,100.57972192382813,-0.00799560546875,0.0229034423828125,-0.014373779296875
1702338794599843000,100.67884301757813,-0.0085296630859375,0.0234375,-0.0133209228515625
1702338794698964200,100.77796411132813,-0.00799560546875,0.0229034423828125,-0.01385498046875
1702338794798054700,100.8770546875,-0.0085296630859375,0.0234375,-0.0133209228515625
1702338794897145300,100.97614526367188,-0.00799560546875,0.0229034423828125,-0.01385498046875
1702338794996419000,101.07541918945313,-0.00799560546875,0.0229034423828125,-0.01385498046875
1702338795095967500,101.17496752929688,-0.0085296630859375,0.0234375,-0.014373779296875
1702338795194661000,101.2736611328125,-0.0074615478515625,0.0229034423828125,-0.014373779296875
1702338795293782300,101.3727822265625,-0.0090484619140625,0.0239715576171875,-0.0133209228515625
1702338795392873000,101.471873046875,-0.0085296630859375,0.0234375,-0.0133209228515625
1702338795491993900,101.57099389648438,-0.0085296630859375,0.0234375,-0.014373779296875
1702338795590657300,101.6696572265625,-0.0085296630859375,0.0239715576171875,-0.0133209228515625
1702338795690480400,101.76948046875,-0.00799560546875,0.0234375,-0.0133209228515625
1702338795789357300,101.868357421875,-0.00799560546875,0.0229034423828125,-0.014373779296875
1702338795888447700,101.96744775390626,-0.00799560546875,0.0229034423828125,-0.0133209228515625
1702338795987569000,102.06656884765626,-0.0085296630859375,0.0229034423828125,-0.014373779296875
1702338796086659600,102.16565966796875,-0.0074615478515625,0.0234375,-0.012786865234375
1702338796185750000,102.26475,-0.00799560546875,0.0234375,-0.012786865234375
1702338796284627000,102.363626953125,-0.0085296630859375,0.022369384765625,-0.0133209228515625
1702338796383961900,102.4629619140625,-0.00799560546875,0.0234375,-0.01385498046875
1702338796483723800,102.56272387695313,-0.00799560546875,0.0234375,-0.0133209228515625
1702338796582295600,102.66129565429688,-0.0085296630859375,0.022369384765625,-0.0133209228515625
1702338796680806100,102.75980615234376,-0.00799560546875,0.0229034423828125,-0.014373779296875
1702338796780263000,102.85926293945313,-0.0090484619140625,0.0234375,-0.014373779296875
1702338796878956800,102.95795678710938,-0.00799560546875,0.0234375,-0.01385498046875
1702338796978108400,103.0571083984375,-0.00799560546875,0.0239715576171875,-0.014373779296875
1702338797077229600,103.1562294921875,-0.00799560546875,0.0234375,-0.014373779296875
1702338797176564200,103.25556420898438,-0.00799560546875,0.0229034423828125,-0.01385498046875
1702338797275685400,103.35468530273438,-0.00799560546875,0.0239715576171875,-0.01385498046875
1702338797374837000,103.4538369140625,-0.0085296630859375,0.0229034423828125,-0.014373779296875
1702338797473836000,103.5528359375,-0.00799560546875,0.0234375,-0.012786865234375
1702338797572804600,103.6518046875,-0.00799560546875,0.022369384765625,-0.01385498046875
1702338797672169700,103.75116967773438,-0.0085296630859375,0.0234375,-0.01385498046875
1702338797771443500,103.850443359375,-0.0085296630859375,0.0229034423828125,-0.0133209228515625
1702338797870564600,103.94956469726563,-0.00799560546875,0.0234375,-0.0133209228515625
1702338797969289000,104.0482890625,-0.0085296630859375,0.0229034423828125,-0.0133209228515625
1702338798069417000,104.1484169921875,-0.0074615478515625,0.0229034423828125,-0.01385498046875
1702338798167500500,104.24650048828126,-0.0085296630859375,0.0229034423828125,-0.01385498046875
1702338798266591200,104.34559130859375,-0.00799560546875,0.0229034423828125,-0.01385498046875
1702338798365681700,104.444681640625,-0.0085296630859375,0.0229034423828125,-0.01385498046875
1702338798465077500,104.54407739257813,-0.0085296630859375,0.0229034423828125,-0.0133209228515625
1702338798564229000,104.64322900390626,-0.0085296630859375,0.0229034423828125,-0.014373779296875
1702338798663441700,104.74244165039063,-0.0085296630859375,0.0229034423828125,-0.0133209228515625
1702338798762166000,104.841166015625,-0.00799560546875,0.0234375,-0.0133209228515625
1702338798861653500,104.94065356445313,-0.0074615478515625,0.0218353271484375,-0.0133209228515625
1702338798960744000,105.03974389648438,-0.00799560546875,0.022369384765625,-0.01385498046875
1702338799059895600,105.1388955078125,-0.00799560546875,0.0234375,-0.01385498046875
1702338799159016700,105.2380166015625,-0.0085296630859375,0.0229034423828125,-0.014373779296875
1702338799258137900,105.33713793945313,-0.0085296630859375,0.0234375,-0.01385498046875
1702338799357014800,105.43601489257813,-0.00799560546875,0.022369384765625,-0.014373779296875
1702338799456837600,105.53583764648438,-0.00799560546875,0.0229034423828125,-0.0133209228515625
1702338799555470600,105.634470703125,-0.0085296630859375,0.0229034423828125,-0.01385498046875
1702338799654561000,105.73356103515626,-0.0085296630859375,0.0229034423828125,-0.0133209228515625
1702338799753682200,105.83268212890626,-0.0090484619140625,0.0234375,-0.0133209228515625
1702338799852803300,105.93180322265626,-0.00799560546875,0.0234375,-0.01385498046875
1702338799952229600,106.03122973632813,-0.0074615478515625,0.0234375,-0.0133209228515625
1702338800050862300,106.1298623046875,-0.00799560546875,0.0234375,-0.012786865234375
1702338800150166500,106.22916650390626,-0.0090484619140625,0.0239715576171875,-0.014373779296875
1702338800249440300,106.32844018554688,-0.0090484619140625,0.0234375,-0.0133209228515625
1702338800348561400,106.4275615234375,-0.00799560546875,0.0234375,-0.01385498046875
1702338800447682600,106.5266826171875,-0.0085296630859375,0.0229034423828125,-0.0133209228515625
1702338800546651000,106.62565087890626,-0.00799560546875,0.022369384765625,-0.0133209228515625
1702338800646229800,106.72522973632813,-0.0090484619140625,0.0229034423828125,-0.01385498046875
1702338800745015300,106.82401538085938,-0.0074615478515625,0.0234375,-0.01385498046875
1702338800844105700,106.92310571289063,-0.0074615478515625,0.0229034423828125,-0.01385498046875
1702338800943227000,107.02222680664063,-0.00799560546875,0.0229034423828125,-0.01385498046875
1702338801042378500,107.12137841796876,-0.0074615478515625,0.0234375,-0.01385498046875
1702338801141438500,107.2204384765625,-0.0090484619140625,0.0239715576171875,-0.0133209228515625
1702338801240529200,107.31952905273438,-0.00799560546875,0.0234375,-0.01385498046875
1702338801339955500,107.41895556640625,-0.00799560546875,0.0234375,-0.01385498046875
1702338801439076600,107.51807666015625,-0.0085296630859375,0.0229034423828125,-0.0133209228515625
1702338801537862000,107.61686181640626,-0.0085296630859375,0.0239715576171875,-0.012786865234375
1702338801636921900,107.715921875,-0.00799560546875,0.0229034423828125,-0.0133209228515625
1702338801735539200,107.81453930664063,-0.00799560546875,0.0229034423828125,-0.012786865234375
1702338801835850500,107.9148505859375,-0.00799560546875,0.022369384765625,-0.0133209228515625
1702338801933781500,108.01278149414063,-0.00799560546875,0.0234375,-0.01385498046875
1702338802032872000,108.11187182617188,-0.00799560546875,0.0234375,-0.01385498046875
1702338802131993000,108.2109931640625,-0.0085296630859375,0.0234375,-0.0133209228515625
1702338802231358500,108.3103583984375,-0.00799560546875,0.0229034423828125,-0.0133209228515625
1702338802330449000,108.40944897460938,-0.0085296630859375,0.0234375,-0.012786865234375
1702338802429692200,108.50869213867188,-0.00799560546875,0.022369384765625,-0.01385498046875
1702338802529423600,108.60842358398438,-0.0085296630859375,0.0229034423828125,-0.01385498046875
1702338802627476500,108.7064765625,-0.00799560546875,0.0229034423828125,-0.014373779296875
1702338802726964000,108.8059638671875,-0.00799560546875,0.0229034423828125,-0.014373779296875
1702338802826115600,108.90511547851563,-0.0085296630859375,0.022369384765625,-0.01385498046875
1702338802925267200,109.00426708984375,-0.00799560546875,0.0229034423828125,-0.0133209228515625
1702338803024266000,109.10326586914063,-0.0085296630859375,0.0239715576171875,-0.01385498046875
1702338803123021000,109.20202099609375,-0.00799560546875,0.0234375,-0.0133209228515625
1702338803222050600,109.30105053710938,-0.00799560546875,0.0234375,-0.0149078369140625
1702338803321171700,109.40017163085938,-0.00799560546875,0.0229034423828125,-0.0133209228515625
1702338803420536800,109.49953686523438,-0.0074615478515625,0.022369384765625,-0.0133209228515625
1702338803519627500,109.59862744140625,-0.00799560546875,0.0234375,-0.01385498046875
1702338803618779100,109.69777905273438,-0.0085296630859375,0.022369384765625,-0.0133209228515625
1702338803717930800,109.7969306640625,-0.00799560546875,0.0234375,-0.01385498046875
1702338803817265400,109.89626538085938,-0.00799560546875,0.0234375,-0.0133209228515625
1702338803916172800,109.9951728515625,-0.0090484619140625,0.0234375,-0.0133209228515625
1702338804015263500,110.09426342773438,-0.0085296630859375,0.022369384765625,-0.01385498046875
1702338804114384400,110.19338427734375,-0.0074615478515625,0.0229034423828125,-0.0133209228515625
1702338804213475000,110.29247509765625,-0.0085296630859375,0.0234375,-0.01385498046875
1702338804312931800,110.39193188476563,-0.00799560546875,0.0229034423828125,-0.0133209228515625
1702338804411747800,110.49074780273438,-0.0085296630859375,0.0234375,-0.012786865234375
1702338804510747000,110.58974682617188,-0.00799560546875,0.0229034423828125,-0.0133209228515625
1702338804609868000,110.68886791992188,-0.00799560546875,0.0234375,-0.0133209228515625
1702338804708958500,110.78795849609375,-0.00799560546875,0.0234375,-0.0133209228515625
1702338804808049200,110.88704907226563,-0.0085296630859375,0.022369384765625,-0.0133209228515625
1702338804907139600,110.9861396484375,-0.0085296630859375,0.0234375,-0.0133209228515625
1702338805005986000,111.08498608398438,-0.00799560546875,0.0229034423828125,-0.01385498046875
1702338805105198600,111.18419848632813,-0.0074615478515625,0.0229034423828125,-0.0133209228515625
1702338805204441900,111.28344189453125,-0.0090484619140625,0.0234375,-0.01385498046875
1702338805303593500,111.38259350585938,-0.0085296630859375,0.0239715576171875,-0.014373779296875
1702338805402653400,111.4816533203125,-0.00799560546875,0.0239715576171875,-0.0133209228515625
1702338805501805000,111.58080517578125,-0.00799560546875,0.0234375,-0.01385498046875
1702338805600926200,111.67992626953125,-0.0085296630859375,0.0229034423828125,-0.0133209228515625
1702338805700871400,111.77987133789063,-0.0085296630859375,0.0234375,-0.0133209228515625
1702338805799046400,111.87804638671875,-0.00799560546875,0.022369384765625,-0.012786865234375
1702338805898136800,111.97713671875,-0.00799560546875,0.022369384765625,-0.01385498046875
1702338805997227500,112.0762275390625,-0.00799560546875,0.0234375,-0.0133209228515625
1702338806096318200,112.17531811523438,-0.0085296630859375,0.0229034423828125,-0.01385498046875
1702338806195408600,112.27440869140625,-0.0085296630859375,0.0229034423828125,-0.014373779296875
1702338806294682400,112.37368237304688,-0.00799560546875,0.0218353271484375,-0.014373779296875
1702338806393620200,112.4726201171875,-0.00799560546875,0.0229034423828125,-0.0133209228515625
1702338806492741400,112.57174145507813,-0.0074615478515625,0.0229034423828125,-0.0133209228515625
1702338806591801600,112.67080151367188,-0.0085296630859375,0.0234375,-0.01385498046875
1702338806690953200,112.769953125,-0.0085296630859375,0.0234375,-0.01385498046875
1702338806789646800,112.86864672851563,-0.0085296630859375,0.0229034423828125,-0.0133209228515625
1702338806888768000,112.96776806640625,-0.00799560546875,0.0234375,-0.0133209228515625
1702338806987858700,113.06685864257813,-0.0085296630859375,0.022369384765625,-0.0133209228515625
1702338807086949000,113.16594921875,-0.0090484619140625,0.022369384765625,-0.01385498046875
1702338807186253300,113.26525341796875,-0.0085296630859375,0.0234375,-0.014373779296875
1702338807285435600,113.364435546875,-0.00799560546875,0.0229034423828125,-0.014373779296875
1702338807384648200,113.46364819335938,-0.00799560546875,0.0229034423828125,-0.014373779296875
1702338807484227000,113.56322705078125,-0.0085296630859375,0.0234375,-0.0133209228515625
1702338807582493700,113.66149365234375,-0.00799560546875,0.0229034423828125,-0.01385498046875
1702338807681798000,113.7607978515625,-0.00799560546875,0.0234375,-0.014373779296875
1702338807781071600,113.86007153320313,-0.00799560546875,0.0218353271484375,-0.0133209228515625
1702338807880223200,113.95922314453125,-0.00799560546875,0.0234375,-0.01385498046875
1702338807979100200,114.05810009765625,-0.00799560546875,0.0229034423828125,-0.0133209228515625
1702338808078007600,114.15700756835938,-0.0085296630859375,0.0234375,-0.0133209228515625
1702338808177037000,114.256037109375,-0.00799560546875,0.0229034423828125,-0.0133209228515625
1702338808276158200,114.355158203125,-0.00799560546875,0.0234375,-0.014373779296875
1702338808375401500,114.4544013671875,-0.0085296630859375,0.0218353271484375,-0.0133209228515625
1702338808474675000,114.55367504882813,-0.0074615478515625,0.0234375,-0.01385498046875
1702338808573765600,114.652765625,-0.0085296630859375,0.022369384765625,-0.01385498046875
1702338808672947700,114.75194775390625,-0.00799560546875,0.0229034423828125,-0.01385498046875
1702338808772099300,114.85109936523438,-0.0074615478515625,0.0229034423828125,-0.01385498046875
1702338808871128800,114.95012890625,-0.00799560546875,0.0234375,-0.014373779296875
1702338808970250000,115.04925,-0.00799560546875,0.0229034423828125,-0.014373779296875
1702338809069340700,115.14834057617188,-0.0085296630859375,0.0229034423828125,-0.014373779296875
1702338809168461600,115.24746166992188,-0.0085296630859375,0.0234375,-0.01385498046875
1702338809267552300,115.34655224609375,-0.0074615478515625,0.0239715576171875,-0.014373779296875
1702338809366551300,115.44555126953125,-0.0085296630859375,0.022369384765625,-0.0133209228515625
1702338809465703000,115.54470288085938,-0.00799560546875,0.0234375,-0.01385498046875
1702338809564793300,115.64379345703125,-0.0085296630859375,0.0234375,-0.01385498046875
1702338809663884000,115.74288403320313,-0.0074615478515625,0.0229034423828125,-0.01385498046875
1702338809762974700,115.841974609375,-0.00799560546875,0.0239715576171875,-0.014373779296875
1702338809862065200,115.94106518554688,-0.0074615478515625,0.0234375,-0.0133209228515625
1702338809960820000,116.03982006835938,-0.0085296630859375,0.0239715576171875,-0.0133209228515625
1702338810060215800,116.1392158203125,-0.00799560546875,0.0229034423828125,-0.01385498046875
1702338810159886300,116.23888623046875,-0.00799560546875,0.0229034423828125,-0.01385498046875
1702338810258580000,116.337580078125,-0.0074615478515625,0.022369384765625,-0.01385498046875
1702338810357945300,116.4369453125,-0.0085296630859375,0.0229034423828125,-0.014373779296875
1702338810456822300,116.535822265625,-0.00799560546875,0.0234375,-0.014373779296875
1702338810555882200,116.63488232421875,-0.0085296630859375,0.0229034423828125,-0.014373779296875
1702338810654973000,116.73397290039063,-0.00799560546875,0.0229034423828125,-0.0133209228515625
1702338810754460200,116.83346020507813,-0.0085296630859375,0.022369384765625,-0.0133209228515625
1702338810853154000,116.93215405273438,-0.0085296630859375,0.0234375,-0.0133209228515625
1702338810952244700,117.03124462890625,-0.0085296630859375,0.0229034423828125,-0.014373779296875
1702338811051304700,117.1303046875,-0.00799560546875,0.0234375,-0.014373779296875
1702338811150242600,117.22924267578125,-0.00799560546875,0.0229034423828125,-0.0133209228515625
1702338811249546800,117.32854663085938,-0.00799560546875,0.0234375,-0.01385498046875
1702338811348576500,117.42757641601563,-0.00799560546875,0.0229034423828125,-0.014373779296875
1702338811447667000,117.5266669921875,-0.0085296630859375,0.0239715576171875,-0.014373779296875
1702338811546757600,117.62575756835938,-0.00799560546875,0.0234375,-0.014373779296875
1702338811645817600,117.72481762695313,-0.00799560546875,0.0229034423828125,-0.014373779296875
1702338811745396500,117.824396484375,-0.0085296630859375,0.0234375,-0.01385498046875
1702338811843510500,117.92251049804688,-0.00799560546875,0.0234375,-0.01385498046875
1702338811942601000,118.02160107421875,-0.0085296630859375,0.0229034423828125,-0.0133209228515625
1702338812041691600,118.12069165039063,-0.00799560546875,0.022369384765625,-0.0133209228515625
1702338812141118000,118.22011791992188,-0.0074615478515625,0.0229034423828125,-0.0133209228515625
1702338812240117000,118.31911694335938,-0.00799560546875,0.0229034423828125,-0.014373779296875
1702338812339238100,118.41823803710938,-0.00799560546875,0.0234375,-0.012786865234375
1702338812439122200,118.5181220703125,-0.00799560546875,0.022369384765625,-0.01385498046875
1702338812537144600,118.61614453125,-0.0085296630859375,0.0239715576171875,-0.01385498046875
1702338812636631800,118.7156318359375,-0.0074615478515625,0.0229034423828125,-0.0133209228515625
1702338812735753000,118.8147529296875,-0.00799560546875,0.0229034423828125,-0.012786865234375
1702338812834843400,118.91384350585938,-0.0074615478515625,0.0229034423828125,-0.012786865234375
1702338812933995000,119.0129951171875,-0.0085296630859375,0.0229034423828125,-0.012786865234375
1702338813032628000,119.1116279296875,-0.00799560546875,0.0229034423828125,-0.01385498046875
1702338813131718400,119.21071850585938,-0.00799560546875,0.0229034423828125,-0.0133209228515625
1702338813230778600,119.30977856445313,-0.0085296630859375,0.0234375,-0.0133209228515625
1702338813330143700,119.40914379882813,-0.00799560546875,0.022369384765625,-0.01385498046875
1702338813429234400,119.508234375,-0.00799560546875,0.0229034423828125,-0.01385498046875
1702338813528355600,119.60735546875,-0.00799560546875,0.0234375,-0.0133209228515625
1702338813627171300,119.70617138671875,-0.0074615478515625,0.0229034423828125,-0.012786865234375
1702338813726445000,119.80544506835938,-0.0085296630859375,0.0229034423828125,-0.012786865234375
1702338813825535700,119.90453564453125,-0.00799560546875,0.0229034423828125,-0.01385498046875
1702338813924748300,120.00374829101563,-0.0085296630859375,0.0234375,-0.014373779296875
1702338814023839000,120.1028388671875,-0.00799560546875,0.0239715576171875,-0.014373779296875
1702338814122960000,120.2019599609375,-0.00799560546875,0.0234375,-0.0133209228515625
1702338814221623300,120.30062329101563,-0.00799560546875,0.0234375,-0.0133209228515625
1702338814321385200,120.40038525390625,-0.00799560546875,0.0229034423828125,-0.0133209228515625
1702338814420231700,120.49923168945313,-0.00799560546875,0.0234375,-0.01385498046875
1702338814519322400,120.598322265625,-0.00799560546875,0.022369384765625,-0.0133209228515625
1702338814618412800,120.69741284179688,-0.00799560546875,0.0229034423828125,-0.01385498046875
1702338814717534000,120.79653393554688,-0.00799560546875,0.0229034423828125,-0.0133209228515625
1702338814816624400,120.89562426757813,-0.0085296630859375,0.0229034423828125,-0.01385498046875
1702338814915593000,120.99459301757813,-0.0074615478515625,0.0234375,-0.01385498046875
1702338815014836200,121.09383618164063,-0.00799560546875,0.0234375,-0.0133209228515625
1702338815113926700,121.1929267578125,-0.0090484619140625,0.0239715576171875,-0.01385498046875
1702338815213394400,121.29239453125,-0.0085296630859375,0.0234375,-0.0149078369140625
1702338815312271400,121.39127124023437,-0.0085296630859375,0.0234375,-0.01385498046875
1702338815411361800,121.49036181640625,-0.00799560546875,0.0229034423828125,-0.0133209228515625
1702338815510666000,121.589666015625,-0.00799560546875,0.0229034423828125,-0.01385498046875
1702338815610550000,121.68955004882812,-0.006927490234375,0.0234375,-0.0133209228515625
1702338815708633600,121.78763354492187,-0.0074615478515625,0.0229034423828125,-0.012786865234375
1702338815807754800,121.88675463867187,-0.00799560546875,0.0229034423828125,-0.01385498046875
1702338815906845200,121.98584521484375,-0.0085296630859375,0.0229034423828125,-0.0133209228515625
1702338816005966300,122.08496630859375,-0.00799560546875,0.0234375,-0.01385498046875
1702338816105057000,122.18405712890625,-0.00799560546875,0.0234375,-0.0133209228515625
1702338816204391700,122.2833916015625,-0.00799560546875,0.0229034423828125,-0.01385498046875
1702338816303238100,122.38223803710937,-0.0085296630859375,0.0229034423828125,-0.01385498046875
1702338816402298000,122.48129809570312,-0.00799560546875,0.022369384765625,-0.01385498046875
1702338816501388800,122.58038891601562,-0.00799560546875,0.0229034423828125,-0.01385498046875
1702338816600418300,122.67941821289062,-0.00799560546875,0.022369384765625,-0.01385498046875
1702338816699142700,122.778142578125,-0.0090484619140625,0.0234375,-0.012786865234375
1702338816798904600,122.87790454101562,-0.00799560546875,0.0234375,-0.01385498046875
1702338816897781500,122.97678149414062,-0.0085296630859375,0.024505615234375,-0.01385498046875
1702338816996872200,123.0758720703125,-0.00799560546875,0.0234375,-0.0133209228515625
1702338817095962600,123.17496264648437,-0.00799560546875,0.0234375,-0.01385498046875
1702338817195053300,123.27405322265625,-0.00799560546875,0.0229034423828125,-0.0133209228515625
1702338817294144000,123.37314404296875,-0.00799560546875,0.0234375,-0.01385498046875
1702338817392990200,123.471990234375,-0.00799560546875,0.0234375,-0.01385498046875
1702338817492294400,123.57129443359375,-0.0085296630859375,0.0239715576171875,-0.01385498046875
1702338817591385000,123.67038500976562,-0.0085296630859375,0.0229034423828125,-0.014373779296875
1702338817690475800,123.76947583007812,-0.0074615478515625,0.022369384765625,-0.01385498046875
1702338817789566200,123.86856616210937,-0.0090484619140625,0.0229034423828125,-0.0133209228515625
1702338817888168400,123.96716845703125,-0.0085296630859375,0.0234375,-0.0133209228515625
1702338817988022000,124.06702197265625,-0.00799560546875,0.022369384765625,-0.01385498046875
1702338818086807600,124.1658076171875,-0.0085296630859375,0.0234375,-0.0133209228515625
1702338818185898000,124.26489794921875,-0.0085296630859375,0.0229034423828125,-0.014373779296875
1702338818284988700,124.36398876953125,-0.0085296630859375,0.0234375,-0.0133209228515625
1702338818384079000,124.4630791015625,-0.00799560546875,0.0234375,-0.014373779296875
1702338818483169800,124.56216967773437,-0.00799560546875,0.0234375,-0.012786865234375
1702338818641433900,124.72043383789062,-0.00799560546875,0.0229034423828125,-0.012786865234375
1702338818740249900,124.81924975585937,-0.00799560546875,0.0229034423828125,-0.01385498046875
1702338818840042200,124.91904223632812,-0.006927490234375,0.0234375,-0.0133209228515625
1702338818938766600,125.0177666015625,-0.00799560546875,0.0239715576171875,-0.014373779296875
1702338819038132000,125.11713208007812,-0.0090484619140625,0.0229034423828125,-0.01385498046875
1702338819137344500,125.21634448242187,-0.00799560546875,0.0229034423828125,-0.0133209228515625
1702338819235946800,125.31494677734375,-0.00799560546875,0.0229034423828125,-0.0133209228515625
1702338819335312100,125.41431201171875,-0.00799560546875,0.0229034423828125,-0.0133209228515625
1702338819434402600,125.51340258789062,-0.0074615478515625,0.0234375,-0.0133209228515625
1702338819533493200,125.6124931640625,-0.0085296630859375,0.0229034423828125,-0.014373779296875
1702338819632584000,125.711583984375,-0.00799560546875,0.0234375,-0.0133209228515625
1702338819731674400,125.81067431640625,-0.00799560546875,0.0229034423828125,-0.01385498046875
1702338819830337800,125.909337890625,-0.0085296630859375,0.0229034423828125,-0.0133209228515625
1702338819929855500,126.00885546875,-0.0085296630859375,0.0234375,-0.01385498046875
1702338820028946200,126.1079462890625,-0.0085296630859375,0.022369384765625,-0.014373779296875
1702338820129196300,126.2081962890625,-0.00799560546875,0.0234375,-0.01385498046875
1702338820227127300,126.30612719726562,-0.00799560546875,0.0234375,-0.0133209228515625
1702338820326248400,126.40524853515625,-0.00799560546875,0.0229034423828125,-0.0133209228515625
1702338820425186300,126.50418627929687,-0.0085296630859375,0.0234375,-0.0133209228515625
1702338820524948200,126.6039482421875,-0.0085296630859375,0.0234375,-0.0133209228515625
1702338820623520000,126.70252001953125,-0.00799560546875,0.0234375,-0.0133209228515625
1702338820722580200,126.80158032226562,-0.0085296630859375,0.0234375,-0.014373779296875
1702338820821854000,126.90085400390625,-0.00799560546875,0.0229034423828125,-0.012786865234375
1702338820920853000,126.99985302734375,-0.00799560546875,0.0234375,-0.01385498046875
1702338821019943400,127.098943359375,-0.00799560546875,0.0234375,-0.01385498046875
1702338821118942500,127.1979423828125,-0.00799560546875,0.0234375,-0.01385498046875
1702338821218063600,127.29706372070312,-0.0074615478515625,0.0229034423828125,-0.0133209228515625
1702338821317184800,127.39618481445312,-0.00799560546875,0.0229034423828125,-0.01385498046875
1702338821416275200,127.49527514648437,-0.00799560546875,0.0234375,-0.0133209228515625
1702338821515335200,127.59433520507812,-0.0085296630859375,0.0229034423828125,-0.0133209228515625
1702338821614639600,127.6936396484375,-0.00799560546875,0.0229034423828125,-0.0133209228515625
1702338821713455400,127.79245532226562,-0.00799560546875,0.0229034423828125,-0.0133209228515625
1702338821812149200,127.89114916992187,-0.00799560546875,0.0234375,-0.01385498046875
1702338821911240000,127.99023999023437,-0.0085296630859375,0.0234375,-0.01385498046875
1702338822010757600,128.08975756835937,-0.0074615478515625,0.0234375,-0.0133209228515625
1702338822109848300,128.1888483886719,-0.0074615478515625,0.0234375,-0.01385498046875
1702338822208847400,128.2878474121094,-0.0085296630859375,0.0234375,-0.01385498046875
1702338822308182000,128.38718212890626,-0.00799560546875,0.0239715576171875,-0.0133209228515625
1702338822406753800,128.48575390625,-0.0085296630859375,0.0234375,-0.0133209228515625
1702338822506180000,128.58518017578126,-0.0085296630859375,0.0229034423828125,-0.0133209228515625
1702338822605392600,128.684392578125,-0.00799560546875,0.0239715576171875,-0.01385498046875
1702338822704513800,128.783513671875,-0.0074615478515625,0.0229034423828125,-0.0133209228515625
1702338822803299000,128.88229907226562,-0.0085296630859375,0.0239715576171875,-0.01385498046875
1702338822902298000,128.98129809570312,-0.00799560546875,0.0229034423828125,-0.01385498046875
1702338823001419300,129.08041918945312,-0.0090484619140625,0.0229034423828125,-0.0133209228515625
1702338823100510000,129.17951000976564,-0.0085296630859375,0.0229034423828125,-0.01385498046875
1702338823199630800,129.278630859375,-0.00799560546875,0.0229034423828125,-0.012786865234375
1702338823298996200,129.37799633789064,-0.0085296630859375,0.0229034423828125,-0.0133209228515625
1702338823398086700,129.47708666992187,-0.00799560546875,0.022369384765625,-0.0133209228515625
1702338823497238300,129.57623828125,-0.00799560546875,0.0229034423828125,-0.012786865234375
