time,seconds_elapsed,z,y,x
1702338694103153400,0.1821533203125,9.430755615234375,3.950439453125,-0.8978271484375
1702338694202305000,0.281304931640625,8.623916625976562,3.5314483642578125,-0.1244964599609375
1702338694301517600,0.380517578125,8.097183227539062,4.1180267333984375,0.8260040283203125
1702338694400699600,0.47969970703125,9.006988525390625,3.454833984375,0.8595123291015625
1702338694499851300,0.578851318359375,9.021347045898438,3.9935302734375,1.92254638671875
1702338694599033600,0.67803369140625,9.071624755859375,4.26885986328125,1.4556732177734375
1702338694698215700,0.777215576171875,8.734054565429688,4.632781982421875,1.484405517578125
1702338694797397800,0.876397705078125,9.241622924804688,5.0804901123046875,2.001556396484375
1702338694896579800,0.975579833984375,8.834609985351562,4.474761962890625,1.9991607666015625
1702338694995731500,1.0747314453125,8.171417236328125,4.769256591796875,2.21942138671875
1702338695094883000,1.173883056640625,7.71173095703125,5.2696380615234375,1.9632415771484375
1702338695194034700,1.27303466796875,6.82586669921875,5.63116455078125,2.552215576171875
1702338695293186300,1.372186279296875,7.465118408203125,5.64312744140625,2.762908935546875
1702338695392368400,1.471368408203125,7.94635009765625,5.762847900390625,2.959228515625
1702338695491489500,1.570489501953125,6.8378448486328125,6.0621185302734375,2.3343505859375
1702338695590610700,1.669610595703125,7.15386962890625,6.5313873291015625,2.233795166015625
1702338695689762300,1.76876220703125,6.4332275390625,6.069305419921875,2.80120849609375
1702338695788914000,1.867913818359375,8.362945556640625,6.3733673095703125,0.586578369140625
1702338695888736800,1.96773681640625,4.611236572265625,6.7492523193359375,1.9153594970703125
1702338695987461000,2.066461181640625,5.9926910400390625,6.502655029296875,1.93450927734375
1702338696086857000,2.16585693359375,7.6638336181640625,5.8873443603515625,1.3287811279296875
1702338696185886500,2.264886474609375,7.8529815673828125,5.76763916015625,2.097320556640625
1702338696285495800,2.364495849609375,8.202529907226562,5.7867889404296875,2.636016845703125
1702338696384251000,2.4632509765625,7.7428436279296875,5.683837890625,2.7868499755859375
1702338696483158300,2.562158203125,7.4100494384765625,5.6551055908203125,3.28485107421875
1702338696582615000,2.661614990234375,6.90966796875,5.58807373046875,3.64398193359375
1702338696681736200,2.760736083984375,8.3270263671875,5.425262451171875,2.2960357666015625
1702338696780887800,2.8598876953125,4.0007171630859375,5.056549072265625,1.21624755859375
1702338696880008700,2.9590087890625,12.595901489257812,2.810791015625,0.1508331298828125
1702338696979160300,3.058160400390625,12.121841430664062,1.642425537109375,0.4836273193359375
1702338697077945900,3.15694580078125,9.050079345703125,-0.8068389892578125,0.2992706298828125
1702338697177952000,3.256951904296875,11.190505981445312,-0.00958251953125,1.39581298828125
1702338697276615200,3.355615234375,5.6407470703125,0.08380126953125,3.8331146240234375
1702338697375766800,3.454766845703125,9.186553955078125,-1.2665252685546875,4.465179443359375
1702338697474918400,3.55391845703125,9.471466064453125,-0.258575439453125,4.469970703125
1702338697574039600,3.65303955078125,9.327804565429688,-1.3191986083984375,3.77325439453125
1702338697673160700,3.75216064453125,10.922348022460938,-0.450103759765625,3.79241943359375
1702338697772190200,3.851190185546875,5.2193603515625,0.0023956298828125,-1.27850341796875
1702338697871464000,3.9504638671875,9.021347045898438,0.1987152099609375,-0.174774169921875
1702338697970615600,4.049615478515625,10.1107177734375,0.11492919921875,-0.09576416015625
1702338698069736700,4.14873681640625,9.643844604492188,0.0550689697265625,0.0191497802734375
1702338698168888300,4.247888427734375,9.639053344726562,0.088592529296875,0.0718231201171875
1702338698268040000,4.3470400390625,9.651031494140625,0.05267333984375,0.05267333984375
1702338698367130400,4.44613037109375,9.658203125,0.0670318603515625,0.0287322998046875
1702338698466343200,4.54534326171875,9.679763793945312,0.1244964599609375,0.06463623046875
1702338698565787100,4.644787109375,9.653427124023438,0.0670318603515625,0.0550689697265625
1702338698664603100,4.74360302734375,9.684539794921875,0.00958251953125,0.0454864501953125
1702338698763785200,4.84278515625,9.66778564453125,0.0814056396484375,0.0287322998046875
1702338698863089400,4.94208935546875,9.651031494140625,0.088592529296875,0.06463623046875
1702338698962088400,5.04108837890625,9.691726684570312,0.079010009765625,0.035919189453125
1702338699061057000,5.14005712890625,9.617507934570312,0.0670318603515625,0.02154541015625
1702338699160361200,5.239361328125,9.641448974609375,0.1197052001953125,0.0119781494140625
1702338699259818000,5.33881787109375,9.662994384765625,0.0766143798828125,0.0143585205078125
1702338699358633700,5.4376337890625,9.71087646484375,0.0718231201171875,0.062255859375
1702338699457755000,5.5367548828125,9.648635864257812,0.08380126953125,0.026336669921875
1702338699556876000,5.6358759765625,9.62469482421875,0.0933685302734375,0.0406951904296875
1702338699656149800,5.735149658203125,9.643844604492188,0.0981597900390625,0.0430908203125
1702338699755179300,5.83417919921875,9.658203125,0.0383148193359375,0.05267333984375
1702338699854331000,5.933330810546875,9.619903564453125,0.057464599609375,0.026336669921875
1702338699953452000,6.0324521484375,9.634262084960938,0.057464599609375,0.0335235595703125
1702338700052695000,6.131695068359375,9.643844604492188,0.035919189453125,0.0766143798828125
1702338700151755300,6.23075537109375,9.665390014648438,0.07421875,0.0406951904296875
1702338700250998300,6.329998291015625,9.617507934570312,0.0598602294921875,0.0191497802734375
1702338700349783800,6.42878369140625,9.682159423828125,0.079010009765625,0.0502777099609375
1702338700449240600,6.528240478515625,9.670181274414062,0.07421875,0.047882080078125
1702338700549307600,6.6283076171875,9.660598754882812,0.07421875,0.0311279296875
1702338700647421700,6.726421630859375,9.639053344726562,0.1125335693359375,0.00958251953125
1702338700746573300,6.8255732421875,9.617507934570312,0.0670318603515625,0.0383148193359375
1702338700845694500,6.924694580078125,9.643844604492188,0.088592529296875,0.08380126953125
1702338701678091800,7.757091796875,9.648635864257812,0.0933685302734375,0.0454864501953125
1702338701777457200,7.85645703125,9.607925415039062,0.11492919921875,0.035919189453125
1702338701876761300,7.95576123046875,9.643844604492188,0.08380126953125,0.0239410400390625
1702338701975913000,8.054912841796876,9.653427124023438,0.08380126953125,0.0430908203125
1702338702074637300,8.15363720703125,9.665390014648438,0.0718231201171875,0.05267333984375
1702338702174734800,8.25373486328125,9.641448974609375,0.057464599609375,0.004791259765625
1702338702272910000,8.35191015625,9.653427124023438,0.07421875,0.0023956298828125
1702338702372061700,8.451061767578125,9.643844604492188,0.035919189453125,0.035919189453125
1702338702471213300,8.55021337890625,9.6773681640625,0.06463623046875,0.0335235595703125
1702338702570670000,8.649670166015625,9.662994384765625,0.0598602294921875,0.0670318603515625
1702338702669882600,8.748882568359376,9.665390014648438,0.0981597900390625,0.0383148193359375
1702338702769064700,8.848064697265626,9.686935424804688,0.0981597900390625,0.026336669921875
1702338702867880700,8.946880615234376,9.627090454101562,0.0981597900390625,0.026336669921875
1702338702967368000,9.046367919921876,9.651031494140625,0.0550689697265625,0.016754150390625
1702338703066489000,9.145489013671876,9.6151123046875,0.0406951904296875,0.0311279296875
1702338703165640700,9.244640625,9.634262084960938,0.0383148193359375,0.0550689697265625
1702338703264792300,9.343792236328126,9.629486083984375,0.08380126953125,0.047882080078125
1702338703363944000,9.44294384765625,9.686935424804688,0.062255859375,0.0071868896484375
1702338703462851300,9.541851318359376,9.6773681640625,0.0598602294921875,0.0454864501953125
1702338703562644000,9.64164404296875,9.634262084960938,0.1125335693359375,0.0311279296875
1702338703661429200,9.74042919921875,9.639053344726562,0.0670318603515625,0.062255859375
1702338703760580900,9.839580810546876,9.643844604492188,0.047882080078125,-0.0023956298828125
1702338703859732500,9.938732421875,9.646240234375,0.090972900390625,0.0239410400390625
1702338703958884000,10.037884033203126,9.653427124023438,0.06463623046875,0.069427490234375
1702338704058005200,10.137005126953126,9.629486083984375,0.088592529296875,0.0766143798828125
1702338704157034800,10.23603466796875,9.641448974609375,0.0981597900390625,0.047882080078125
1702338704256491500,10.335491455078126,9.648635864257812,0.0670318603515625,0.0239410400390625
1702338704355612700,10.43461279296875,9.6773681640625,0.100555419921875,0.0454864501953125
1702338704454733800,10.53373388671875,9.627090454101562,0.062255859375,0.0287322998046875
1702338704553885400,10.632885498046875,9.6773681640625,0.1173095703125,0.0383148193359375
1702338704653036800,10.732036865234376,9.670181274414062,0.0981597900390625,0.0383148193359375
1702338704752066600,10.831066650390625,9.629486083984375,0.0981597900390625,0.05267333984375
1702338704851035000,10.930034912109376,9.629486083984375,0.09576416015625,0.0335235595703125
1702338704950308600,11.02930859375,9.643844604492188,0.05267333984375,0.0406951904296875
1702338705049552000,11.1285517578125,9.65582275390625,0.06463623046875,0.0383148193359375
1702338705148673000,11.227673095703125,9.629486083984375,0.062255859375,0.0550689697265625
1702338705247824600,11.32682470703125,9.627090454101562,0.07421875,0.069427490234375
1702338705347067600,11.426067626953126,9.639053344726562,0.035919189453125,0.0598602294921875
1702338705445883600,11.524883544921876,9.634262084960938,0.100555419921875,0.0550689697265625
1702338705545279200,11.624279296875,9.6773681640625,0.1029510498046875,0.0287322998046875
1702338705644400400,11.723400390625,9.662994384765625,0.0670318603515625,0.0335235595703125
1702338705743552000,11.822552001953126,9.66778564453125,0.0670318603515625,0.0430908203125
1702338705844687400,11.923687255859376,9.646240234375,0.0550689697265625,0.05267333984375
1702338706675498000,12.754498046875,9.665390014648438,0.069427490234375,0.00958251953125
1702338706774069800,12.85306982421875,9.646240234375,0.0718231201171875,0.0406951904296875
1702338706873526500,12.952526611328125,9.658203125,0.079010009765625,0.016754150390625
1702338706972769500,13.05176953125,9.622299194335938,0.062255859375,0.004791259765625
1702338707071890700,13.150890625,9.660598754882812,0.0598602294921875,0.00958251953125
1702338707170615000,13.249614990234376,9.694122314453125,0.0933685302734375,-0.004791259765625
1702338707270590700,13.3495908203125,9.71087646484375,0.1029510498046875,0.05267333984375
1702338707368887800,13.4478876953125,9.643844604492188,0.06463623046875,0.0502777099609375
1702338707468039400,13.547039306640626,9.66778564453125,0.0598602294921875,0.0670318603515625
1702338707567191000,13.64619091796875,9.648635864257812,0.08380126953125,0.057464599609375
1702338707666708700,13.745708740234376,9.662994384765625,0.0718231201171875,0.0119781494140625
1702338707765830000,13.844829833984376,9.612716674804688,0.06463623046875,0.0430908203125
1702338707864920600,13.943920654296875,9.646240234375,0.0430908203125,0.0406951904296875
1702338707963828000,14.042827880859376,9.646240234375,0.0814056396484375,0.0335235595703125
1702338708063223800,14.142223876953125,9.646240234375,0.0670318603515625,0.0502777099609375
1702338708162375400,14.24137548828125,9.63665771484375,0.062255859375,0.00958251953125
1702338708261496300,14.340496337890626,9.622299194335938,0.0933685302734375,0.02154541015625
1702338708360648000,14.43964794921875,9.641448974609375,0.09576416015625,0.0239410400390625
1702338708459799600,14.538799560546876,9.646240234375,0.0670318603515625,0.0335235595703125
1702338708558676500,14.637676513671876,9.641448974609375,0.079010009765625,0.0430908203125
1702338708658438700,14.737438720703125,9.641448974609375,0.0550689697265625,0.05267333984375
1702338708757193500,14.836193359375,9.627090454101562,0.0718231201171875,0.047882080078125
1702338708856314600,14.935314697265625,9.6773681640625,0.047882080078125,0.026336669921875
1702338708955466200,15.03446630859375,9.629486083984375,0.0670318603515625,0.08380126953125
1702338709054617900,15.133617919921875,9.641448974609375,0.0406951904296875,0.035919189453125
1702338709153891300,15.232891357421876,9.643844604492188,0.07421875,0.02154541015625
1702338709252829400,15.331829345703126,9.648635864257812,0.0718231201171875,0.0383148193359375
1702338709352255700,15.431255859375,9.665390014648438,0.079010009765625,0.026336669921875
1702338709451377000,15.530376953125,9.674972534179688,0.057464599609375,0.0239410400390625
1702338709550436900,15.629436767578126,9.641448974609375,0.0287322998046875,0.06463623046875
1702338709649649400,15.7286494140625,9.653427124023438,0.0718231201171875,0.0502777099609375
1702338709748770600,15.8277705078125,9.672576904296875,0.0766143798828125,0.090972900390625
1702338709847952600,15.92695263671875,9.607925415039062,0.0430908203125,0.026336669921875
1702338709947545900,16.0265458984375,9.641448974609375,0.079010009765625,0.0311279296875
1702338710046209300,16.125209228515626,9.66778564453125,0.0550689697265625,0.035919189453125
1702338710145330200,16.224330078125,9.63665771484375,0.0933685302734375,0.026336669921875
1702338710244481800,16.323481689453125,9.639053344726562,0.0933685302734375,0.004791259765625
1702338710343633400,16.42263330078125,9.674972534179688,0.035919189453125,0.047882080078125
1702338710442785000,16.521784912109375,9.65582275390625,0.062255859375,0.0406951904296875
1702338710541723100,16.62072314453125,9.629486083984375,0.079010009765625,0.035919189453125
1702338710641088300,16.720088134765625,9.627090454101562,0.07421875,0.0383148193359375
1702338710740240000,16.819239990234376,9.648635864257812,0.0766143798828125,0.047882080078125
1702338710839391500,16.9183916015625,9.641448974609375,0.05267333984375,0.0239410400390625
1702338711672063700,17.751063720703126,9.627090454101562,0.07421875,0.0287322998046875
1702338711771306800,17.850306640625,9.65582275390625,0.069427490234375,0.0383148193359375
1702338711870000600,17.949000732421876,9.622299194335938,0.100555419921875,0.0550689697265625
1702338711969121800,18.048121826171876,9.651031494140625,0.06463623046875,0.0718231201171875
1702338712068670200,18.147670166015626,9.639053344726562,0.0718231201171875,0.05267333984375
1702338712167669200,18.246669189453126,9.658203125,0.057464599609375,0.0311279296875
1702338712266820900,18.34582080078125,9.65582275390625,0.0383148193359375,0.0454864501953125
1702338712365636600,18.44463671875,9.643844604492188,0.100555419921875,0.0550689697265625
1702338712464788200,18.543788330078126,9.648635864257812,0.0335235595703125,0.06463623046875
1702338712563909400,18.642909423828126,9.641448974609375,0.0598602294921875,0.0023956298828125
1702338712663457800,18.742457763671876,9.69891357421875,0.0430908203125,0.0766143798828125
1702338712762579000,18.841578857421876,9.643844604492188,0.06463623046875,0.016754150390625
1702338712861730600,18.94073046875,9.662994384765625,0.08380126953125,0.0239410400390625
1702338712960851500,19.0398515625,9.651031494140625,0.0598602294921875,0.047882080078125
1702338713059637000,19.138636962890626,9.684539794921875,0.088592529296875,0.0550689697265625
1702338713159856600,19.238856689453126,9.648635864257812,0.069427490234375,0.0287322998046875
1702338713258306300,19.337306396484376,9.648635864257812,0.0502777099609375,0.05267333984375
1702338713357458000,19.4364580078125,9.63665771484375,0.0933685302734375,0.0598602294921875
1702338713456579000,19.5355791015625,9.651031494140625,0.05267333984375,-0.0023956298828125
1702338713555730700,19.634730712890626,9.641448974609375,0.0550689697265625,0.0191497802734375
1702338713654485500,19.733485595703126,9.696517944335938,0.0670318603515625,0.0383148193359375
1702338713754308600,19.83330859375,9.670181274414062,0.0814056396484375,0.016754150390625
1702338713853155000,19.932155029296876,9.651031494140625,0.0766143798828125,0.0550689697265625
1702338713952306700,20.031306640625,9.634262084960938,0.057464599609375,0.047882080078125
1702338714051458300,20.130458251953126,9.670181274414062,0.0454864501953125,0.0311279296875
1702338714150610000,20.22960986328125,9.682159423828125,0.100555419921875,0.016754150390625
1702338714250188800,20.329188720703126,9.648635864257812,0.088592529296875,0.069427490234375
1702338714348638500,20.427638427734376,9.639053344726562,0.047882080078125,0.08380126953125
1702338714448217300,20.52721728515625,9.63665771484375,0.0718231201171875,0.05267333984375
1702338714547369000,20.626368896484376,9.627090454101562,0.047882080078125,0.047882080078125
1702338714646489900,20.72548974609375,9.648635864257812,0.079010009765625,0.0430908203125
1702338714745641500,20.824641357421875,9.662994384765625,0.0502777099609375,0.0550689697265625
1702338714844793000,20.92379296875,9.66778564453125,0.0766143798828125,0.0383148193359375
1702338714943700700,21.02270068359375,9.622299194335938,0.088592529296875,0.0335235595703125
1702338715042821600,21.121821533203125,9.62469482421875,0.0861968994140625,0.02154541015625
1702338715142217500,21.221217529296876,9.679763793945312,0.0598602294921875,0.0311279296875
1702338715241369000,21.320369140625,9.646240234375,0.0861968994140625,0.0430908203125
1702338715340520700,21.419520751953126,9.66778564453125,0.0766143798828125,0.0335235595703125
1702338715439641900,21.518641845703126,9.65582275390625,0.079010009765625,0.0406951904296875
1702338715538793500,21.61779345703125,9.653427124023438,0.057464599609375,0.0311279296875
1702338715637700900,21.716700927734376,9.6773681640625,0.0670318603515625,0.0239410400390625
1702338715737035500,21.816035400390625,9.670181274414062,0.0933685302734375,0.0454864501953125
1702338715836004000,21.915004150390626,9.670181274414062,0.057464599609375,0.0143585205078125
1702338715935338800,22.0143388671875,9.643844604492188,0.069427490234375,0.0311279296875
1702338716034490400,22.113490478515626,9.629486083984375,0.069427490234375,0.0502777099609375
1702338716668920300,22.74792041015625,9.643844604492188,0.0670318603515625,0.06463623046875
1702338716768041500,22.84704150390625,9.612716674804688,0.0311279296875,0.0191497802734375
1702338716867101400,22.946101318359375,9.658203125,0.07421875,0.057464599609375
1702338716965948000,23.044947998046876,9.66778564453125,0.079010009765625,0.0311279296875
1702338717065099500,23.144099609375,9.627090454101562,0.100555419921875,-0.0239410400390625
1702338717164495400,23.243495361328126,9.63665771484375,0.08380126953125,0.0430908203125
1702338717263677400,23.342677490234376,9.612716674804688,0.1029510498046875,0.02154541015625
1702338717362829000,23.4418291015625,9.634262084960938,0.035919189453125,0.0598602294921875
1702338717462225000,23.541224853515626,9.672576904296875,0.088592529296875,0.0335235595703125
1702338717560827100,23.6398271484375,9.6031494140625,0.08380126953125,0.05267333984375
1702338717660344800,23.7393447265625,9.658203125,0.0861968994140625,0.0191497802734375
1702338717759496400,23.838496337890625,9.622299194335938,0.0766143798828125,0.035919189453125
1702338717858953200,23.937953125,9.634262084960938,0.0766143798828125,0.0430908203125
1702338717957769200,24.036769287109376,9.629486083984375,0.0670318603515625,0.0670318603515625
1702338718056920800,24.1359208984375,9.6151123046875,0.0670318603515625,0.0383148193359375
1702338718156133600,24.235133544921876,9.660598754882812,0.0550689697265625,0.047882080078125
1702338718255681800,24.334681884765626,9.679763793945312,0.0718231201171875,0.0143585205078125
1702338718354375700,24.433375732421876,9.612716674804688,0.035919189453125,0
1702338718453496800,24.532496826171876,9.66778564453125,0.09576416015625,0.00958251953125
1702338718552648400,24.6316484375,9.6151123046875,0.088592529296875,0.004791259765625
1702338718651800000,24.730800048828126,9.631866455078125,0.0814056396484375,0.00958251953125
1702338718750677000,24.829677001953126,9.660598754882812,0.0933685302734375,0.0335235595703125
1702338718850164200,24.929164306640626,9.703704833984375,0.069427490234375,0.069427490234375
1702338718949224400,25.028224365234376,9.653427124023438,0.0287322998046875,0.0383148193359375
1702338719048376000,25.1273759765625,9.672576904296875,0.08380126953125,0.0311279296875
1702338719147497000,25.2264970703125,9.639053344726562,0.07421875,0.035919189453125
1702338719246831900,25.325831787109376,9.66778564453125,0.07421875,0.0311279296875
1702338719345983500,25.4249833984375,9.660598754882812,0.07421875,0.0119781494140625
1702338719444616200,25.5236162109375,9.646240234375,0.06463623046875,0.0430908203125
1702338719544012000,25.623011962890626,9.674972534179688,0.07421875,0.0766143798828125
1702338719643407600,25.72240771484375,9.65582275390625,0.0814056396484375,0.0502777099609375
1702338719742589700,25.821589599609375,9.639053344726562,0.0598602294921875,0.0311279296875
1702338719841741300,25.9207412109375,9.672576904296875,0.062255859375,0.035919189453125
1702338719940893000,26.019892822265625,9.691726684570312,0.0814056396484375,0.035919189453125
1702338720039526000,26.11852587890625,9.641448974609375,0.079010009765625,0.026336669921875
1702338720138921700,26.217921630859376,9.658203125,0.08380126953125,0.0766143798828125
1702338720238347800,26.31734765625,9.643844604492188,0.062255859375,0.026336669921875
1702338720337469000,26.416468994140626,9.648635864257812,0.062255859375,0.016754150390625
1702338720436651000,26.515651123046876,9.658203125,0.0287322998046875,0.05267333984375
1702338720535802600,26.614802734375,9.646240234375,0.0766143798828125,0.026336669921875
1702338720634923800,26.713923828125,9.658203125,0.047882080078125,-0.0023956298828125
1702338720733678600,26.8126787109375,9.648635864257812,0.088592529296875,0.035919189453125
1702338720833227000,26.91222705078125,9.665390014648438,0.1053466796875,0.0383148193359375
1702338720932317700,27.011317626953126,9.610321044921875,0.0933685302734375,0.02154541015625
1702338721665729000,27.74472900390625,9.653427124023438,0.0933685302734375,0.035919189453125
1702338721765094100,27.84409423828125,9.631866455078125,0.0287322998046875,0.0598602294921875
1702338721864245800,27.943245849609376,9.627090454101562,0.0718231201171875,0.0119781494140625
1702338721963000600,28.04200048828125,9.665390014648438,0.0670318603515625,0.0383148193359375
1702338722062152200,28.141152099609375,9.639053344726562,0.1053466796875,0.0383148193359375
1702338722161243000,28.240242919921876,9.682159423828125,0.0933685302734375,0.07421875
1702338722260608000,28.33960791015625,9.658203125,0.0718231201171875,0.0239410400390625
1702338722359881700,28.4388818359375,9.665390014648438,0.057464599609375,0.07421875
1702338722459033300,28.538033447265626,9.672576904296875,0.0430908203125,0.026336669921875
1702338722558062800,28.637062744140625,9.672576904296875,0.026336669921875,0.035919189453125
1702338722657550300,28.73655029296875,9.631866455078125,0.062255859375,0.0071868896484375
1702338722756427300,28.83542724609375,9.641448974609375,0.0598602294921875,0.02154541015625
1702338722855731500,28.9347314453125,9.672576904296875,0.047882080078125,0.0191497802734375
1702338722954883000,29.033883056640626,9.63665771484375,0.0191497802734375,0.0239410400390625
1702338723054034700,29.13303466796875,9.63665771484375,0.06463623046875,0.047882080078125
1702338723153186300,29.232186279296876,9.682159423828125,0.06463623046875,0.06463623046875
1702338723252368400,29.331368408203126,9.643844604492188,0.062255859375,0.0670318603515625
1702338723351550500,29.430550537109376,9.670181274414062,0.0670318603515625,0.0287322998046875
1702338723450610400,29.5296103515625,9.63665771484375,0.088592529296875,0.069427490234375
1702338723549762000,29.628761962890625,9.63665771484375,0.0814056396484375,0.047882080078125
1702338723648913700,29.72791357421875,9.627090454101562,0.0861968994140625,0.0814056396484375
1702338723748034800,29.827034912109376,9.653427124023438,0.06463623046875,0.0550689697265625
1702338723847125500,29.92612548828125,9.6893310546875,0.069427490234375,0.0143585205078125
1702338723946216000,30.0252158203125,9.646240234375,0.0814056396484375,0.0454864501953125
1702338724045459200,30.124459228515626,9.610321044921875,0.0502777099609375,0.0454864501953125
1702338724144733000,30.22373291015625,9.66778564453125,0.08380126953125,0.0239410400390625
1702338724243976000,30.322975830078125,9.653427124023438,0.100555419921875,-0.0071868896484375
1702338724343127600,30.42212744140625,9.629486083984375,0.0670318603515625,0.05267333984375
1702338724442126600,30.521126708984376,9.662994384765625,0.057464599609375,0.0239410400390625
1702338724541247700,30.620247802734376,9.65582275390625,0.07421875,0.0383148193359375
1702338724640643600,30.7196435546875,9.65582275390625,0.0766143798828125,0.026336669921875
1702338724739428900,30.818428955078126,9.682159423828125,0.0454864501953125,0.0598602294921875
1702338724838794200,30.917794189453126,9.622299194335938,0.088592529296875,0.0383148193359375
1702338724937945600,31.016945556640625,9.686935424804688,0.062255859375,0.0311279296875
1702338725037066800,31.116066650390625,9.651031494140625,0.079010009765625,0.0119781494140625
1702338725136371000,31.215370849609375,9.627090454101562,0.047882080078125,0.0191497802734375
1702338725235187000,31.31418701171875,9.65582275390625,0.06463623046875,0.088592529296875
1702338725334521600,31.413521484375,9.665390014648438,0.0670318603515625,0.069427490234375
1702338725434558200,31.51355810546875,9.662994384765625,0.0766143798828125,0.0023956298828125
1702338725532764000,31.611763916015626,9.706100463867188,0.100555419921875,0.02154541015625
1702338725631915500,31.71091552734375,9.653427124023438,0.06463623046875,0.026336669921875
1702338725731067100,31.810067138671876,9.653427124023438,0.06463623046875,0.0287322998046875
1702338725830340900,31.9093408203125,9.653427124023438,0.0598602294921875,0.05267333984375
1702338725929065200,32.008065185546876,9.665390014648438,0.0383148193359375,0.0454864501953125
1702338726028827100,32.1078271484375,9.658203125,0.0430908203125,0.057464599609375
1702338726127826200,32.206826171875,9.651031494140625,0.0454864501953125,0.0239410400390625
1702338727674518000,33.75351806640625,9.662994384765625,0.0670318603515625,0.0287322998046875
1702338727772693000,33.85169287109375,9.665390014648438,0.0933685302734375,0.035919189453125
1702338727871814100,33.950814208984376,9.691726684570312,0.0766143798828125,0.0287322998046875
1702338727970935300,34.049935302734376,9.646240234375,0.0311279296875,0.0406951904296875
1702338728070331000,34.14933081054688,9.63665771484375,0.0430908203125,0.08380126953125
1702338728169421600,34.248421630859376,9.670181274414062,0.05267333984375,0.02154541015625
1702338728268542700,34.347542724609376,9.639053344726562,0.035919189453125,0.0406951904296875
1702338728367755300,34.44675537109375,9.662994384765625,0.0670318603515625,0.0670318603515625
1702338728466510000,34.54551000976563,9.646240234375,0.07421875,0.057464599609375
1702338728565631200,34.64463134765625,9.646240234375,0.088592529296875,0.07421875
1702338728665149200,34.744149169921876,9.686935424804688,0.0598602294921875,0.0670318603515625
1702338728764270000,34.84327001953125,9.65582275390625,0.0191497802734375,0.0550689697265625
1702338728863421700,34.94242163085938,9.660598754882812,0.05267333984375,0.0814056396484375
1702338728962146000,35.04114599609375,9.658203125,0.09576416015625,0.06463623046875
1702338729061969200,35.14096923828125,9.65582275390625,0.100555419921875,0.035919189453125
1702338729160693500,35.239693603515626,9.643844604492188,0.079010009765625,0.0430908203125
1702338729259936800,35.338936767578126,9.6773681640625,0.06463623046875,0.0430908203125
1702338729359057700,35.4380576171875,9.658203125,0.0502777099609375,0.00958251953125
1702338729458209300,35.53720922851563,9.682159423828125,0.100555419921875,0.0191497802734375
1702338729557361000,35.63636083984375,9.651031494140625,0.0311279296875,0.0550689697265625
1702338729656207400,35.73520727539063,9.646240234375,0.0430908203125,0.0311279296875
1702338729755633700,35.83463354492188,9.653427124023438,0.0550689697265625,0.0718231201171875
1702338729854754800,35.9337548828125,9.658203125,0.100555419921875,0.0383148193359375
1702338729953876000,36.0328759765625,9.665390014648438,0.07421875,0.0239410400390625
1702338730052997000,36.1319970703125,9.634262084960938,0.08380126953125,0.0406951904296875
1702338730152179200,36.23117919921875,9.629486083984375,0.08380126953125,0.0406951904296875
1702338730251727400,36.33072729492188,9.670181274414062,0.07421875,0.0383148193359375
1702338730351062300,36.430062255859376,9.646240234375,0.088592529296875,0.047882080078125
1702338730449695000,36.528695068359376,9.612716674804688,0.05267333984375,0.069427490234375
1702338730548816100,36.627816162109376,9.629486083984375,0.0502777099609375,0.07421875
1702338730647937300,36.726937255859376,9.643844604492188,0.0598602294921875,0.047882080078125
1702338730747058200,36.82605810546875,9.634262084960938,0.08380126953125,0.0383148193359375
1702338730846209800,36.92520971679688,9.646240234375,0.0430908203125,0.0454864501953125
1702338730945117400,37.024117431640626,9.670181274414062,0.0550689697265625,0.0383148193359375
1702338731044940300,37.12394018554688,9.65582275390625,0.100555419921875,0.00958251953125
1702338732848193500,38.927193603515626,9.63665771484375,0.0598602294921875,0.047882080078125
1702338732947314700,39.026314697265626,9.643844604492188,0.110137939453125,0.0383148193359375
1702338733046649300,39.1256494140625,9.662994384765625,0.079010009765625,0.06463623046875
1702338733145801000,39.224801025390626,9.648635864257812,0.09576416015625,-0.004791259765625
1702338733244952600,39.32395263671875,9.662994384765625,0.079010009765625,0.047882080078125
1702338733344104200,39.423104248046876,9.658203125,0.090972900390625,0.0670318603515625
1702338733443438800,39.52243896484375,9.622299194335938,0.0550689697265625,0.026336669921875
1702338733542071800,39.62107177734375,9.62469482421875,0.0502777099609375,0.0430908203125
1702338733641192700,39.72019262695313,9.634262084960938,0.0861968994140625,0.035919189453125
1702338733740619000,39.81961889648438,9.641448974609375,0.0550689697265625,0.0718231201171875
1702338733839892700,39.918892822265626,9.660598754882812,0.100555419921875,0.057464599609375
1702338733938952700,40.01795263671875,9.662994384765625,0.0814056396484375,0.05267333984375
1702338734037799200,40.11679907226563,9.646240234375,0.06463623046875,0.0430908203125
1702338734137073000,40.216072998046876,9.651031494140625,0.0502777099609375,0.0119781494140625
1702338734236346600,40.3153466796875,9.646240234375,0.07421875,0.0454864501953125
1702338734335467800,40.4144677734375,9.660598754882812,0.0502777099609375,0.0502777099609375
1702338734434588700,40.51358862304688,9.66778564453125,0.047882080078125,0.0718231201171875
1702338734533709800,40.61270971679688,9.660598754882812,0.0311279296875,0.0287322998046875
1702338734632831000,40.7118310546875,9.658203125,0.069427490234375,0.057464599609375
1702338734731891000,40.81089086914063,9.686935424804688,0.09576416015625,0.035919189453125
1702338734831103700,40.910103759765626,9.662994384765625,0.0670318603515625,0.0406951904296875
1702338734930225000,41.009224853515626,9.634262084960938,0.0598602294921875,0.06463623046875
1702338735030047700,41.1090478515625,9.610321044921875,0.110137939453125,0.0239410400390625
1702338735128497400,41.20749731445313,9.62469482421875,0.057464599609375,0.0071868896484375
1702338735228793600,41.307793701171875,9.651031494140625,0.088592529296875,0.057464599609375
1702338735327304400,41.406304443359375,9.662994384765625,0.07421875,0.0383148193359375
1702338735426151000,41.50515087890625,9.619903564453125,0.1077423095703125,0.0598602294921875
1702338735525272000,41.60427197265625,9.651031494140625,0.0550689697265625,0.090972900390625
1702338735624393000,41.70339306640625,9.629486083984375,0.0550689697265625,0.0239410400390625
1702338735723697200,41.802697265625,9.665390014648438,0.047882080078125,0.0550689697265625
1702338735822665700,41.901665771484375,9.651031494140625,0.0598602294921875,0.0383148193359375
1702338735921756400,42.00075634765625,9.66778564453125,0.0311279296875,0.0454864501953125
1702338736020663800,42.099663818359375,9.648635864257812,0.100555419921875,0.0766143798828125
1702338736120517400,42.199517333984375,9.679763793945312,0.088592529296875,0.016754150390625
1702338737665988600,43.744988525390625,9.6893310546875,0.069427490234375,0.0502777099609375
1702338737765445400,43.8444453125,9.63665771484375,0.0670318603515625,0.047882080078125
1702338737864261000,43.94326123046875,9.643844604492188,0.088592529296875,0.0406951904296875
1702338737963412700,44.042412841796875,9.627090454101562,0.0718231201171875,0.088592529296875
1702338738062564400,44.141564453125,9.643844604492188,0.0718231201171875,0.0287322998046875
1702338738161807600,44.2408076171875,9.66778564453125,0.0550689697265625,0.0598602294921875
1702338738261111800,44.34011181640625,9.66778564453125,0.08380126953125,0.047882080078125
1702338738360233000,44.43923291015625,9.6893310546875,0.0454864501953125,0.0550689697265625
1702338738459445500,44.538445556640625,9.622299194335938,0.0981597900390625,0.0191497802734375
1702338738558169900,44.637169921875,9.660598754882812,0.06463623046875,0.0287322998046875
1702338738657626600,44.736626708984375,9.627090454101562,0.05267333984375,0.02154541015625
1702338738756809000,44.83580908203125,9.634262084960938,0.06463623046875,0.0430908203125
1702338738855960600,44.93496069335937,9.653427124023438,0.08380126953125,0.0143585205078125
1702338738955081500,45.03408154296875,9.6773681640625,0.0766143798828125,0.0383148193359375
1702338739054233000,45.133233154296875,9.641448974609375,0.05267333984375,0.0502777099609375
1702338739153232100,45.232232177734375,9.679763793945312,0.069427490234375,0.08380126953125
1702338739252475400,45.331475341796875,9.6773681640625,0.05267333984375,0.016754150390625
1702338739351627000,45.430626953125,9.670181274414062,0.0933685302734375,0.06463623046875
1702338739450809000,45.52980908203125,9.662994384765625,0.07421875,0.0383148193359375
1702338739549899800,45.628899658203125,9.658203125,0.05267333984375,0.0550689697265625
1702338739649051400,45.72805151367187,9.629486083984375,0.0430908203125,0.00958251953125
1702338739748233500,45.8272333984375,9.65582275390625,0.07421875,0.0430908203125
1702338739847476500,45.9264765625,9.665390014648438,0.047882080078125,0.00958251953125
1702338739946445000,46.025445068359375,9.641448974609375,0.0550689697265625,0.0119781494140625
1702338740045566200,46.124566162109375,9.646240234375,0.0861968994140625,0.0335235595703125
1702338740144717800,46.2237177734375,9.646240234375,0.0502777099609375,0.0406951904296875
1702338740244052500,46.323052490234375,9.672576904296875,0.08380126953125,0.0143585205078125
1702338740343234600,46.422234619140625,9.648635864257812,0.079010009765625,0.0406951904296875
1702338740442172700,46.521172607421875,9.658203125,0.0383148193359375,0.0311279296875
1702338740541507300,46.62050732421875,9.66778564453125,0.0430908203125,0.0430908203125
1702338740640628500,46.71962841796875,9.62469482421875,0.0933685302734375,0.069427490234375
1702338740739749600,46.81874951171875,9.629486083984375,0.06463623046875,0.0143585205078125
1702338740838870500,46.91787060546875,9.634262084960938,0.08380126953125,0.016754150390625
1702338740938022100,47.017022216796875,9.653427124023438,0.0861968994140625,0.0430908203125
1702338741037326300,47.116326416015625,9.643844604492188,0.0670318603515625,0.0071868896484375
1702338741135928800,47.2149287109375,9.674972534179688,0.110137939453125,0.00958251953125
1702338742662662100,48.741662109375,9.679763793945312,0.06463623046875,0.0383148193359375
1702338742761386500,48.840386474609375,9.648635864257812,0.0502777099609375,0.0191497802734375
1702338742861423000,48.940423095703125,9.662994384765625,0.00958251953125,0.0239410400390625
1702338742959628500,49.038628662109375,9.648635864257812,0.0861968994140625,0.0335235595703125
1702338743058780200,49.1377802734375,9.662994384765625,0.07421875,0.06463623046875
1702338743157840400,49.23684033203125,9.62469482421875,0.079010009765625,0.016754150390625
1702338743257205500,49.33620556640625,9.627090454101562,0.057464599609375,0.0861968994140625
1702338743356418300,49.435418212890625,9.643844604492188,0.0430908203125,0.0454864501953125
1702338743455570000,49.53456982421875,9.648635864257812,0.05267333984375,0.016754150390625
1702338743554538200,49.633538330078125,9.66778564453125,0.1029510498046875,0.0598602294921875
1702338743653720600,49.732720458984375,9.6151123046875,0.0861968994140625,0.057464599609375
1702338743752872200,49.8318720703125,9.629486083984375,0.0335235595703125,0.069427490234375
1702338743852054300,49.93105419921875,9.627090454101562,0.07421875,0.0406951904296875
1702338743951206000,50.030205810546875,9.634262084960938,0.0598602294921875,0.0383148193359375
1702338744050326800,50.129326904296875,9.63665771484375,0.09576416015625,0.062255859375
1702338744149051400,50.22805151367187,9.631866455078125,0.07421875,0.026336669921875
1702338744248721700,50.3277216796875,9.639053344726562,0.100555419921875,0.047882080078125
1702338744347659800,50.42665966796875,9.643844604492188,0.069427490234375,0.0502777099609375
1702338744446780700,50.52578076171875,9.646240234375,0.07421875,0.06463623046875
1702338744545901800,50.62490185546875,9.6893310546875,0.0933685302734375,0.047882080078125
1702338744645053400,50.724053466796875,9.674972534179688,0.069427490234375,0.0311279296875
1702338744744174600,50.823174560546875,9.65582275390625,0.06463623046875,0.0454864501953125
1702338744842990600,50.921990478515625,9.641448974609375,0.0335235595703125,0.0383148193359375
1702338744942386200,51.02138623046875,9.658203125,0.035919189453125,0.0430908203125
1702338745041507300,51.12050732421875,9.651031494140625,0.1077423095703125,0.0335235595703125
1702338745140689400,51.219689453125,9.65582275390625,0.0502777099609375,0.06463623046875
1702338745240024000,51.319024169921875,9.641448974609375,0.0670318603515625,0.0023956298828125
1702338745339114800,51.41811474609375,9.679763793945312,0.0550689697265625,0.0670318603515625
1702338745438113800,51.51711376953125,9.641448974609375,0.088592529296875,0.06463623046875
1702338745537937000,51.61693701171875,9.648635864257812,0.0861968994140625,0.02154541015625
1702338745636752600,51.715752685546875,9.65582275390625,0.0670318603515625,0.026336669921875
1702338745735629600,51.814629638671875,9.65582275390625,0.062255859375,0
1702338745834750700,51.913750732421875,9.65582275390625,0.0598602294921875,0.016754150390625
1702338745933994000,52.012993896484375,9.619903564453125,0.0766143798828125,0.0287322998046875
1702338746033023500,52.1120234375,9.646240234375,0.0670318603515625,0.0143585205078125
1702338746131931000,52.210930908203125,9.684539794921875,0.0981597900390625,0.016754150390625
1702338747678256600,53.757256591796875,9.447525024414062,0.64404296875,0.3782806396484375
1702338747777011500,53.856011474609375,9.006988525390625,0.1173095703125,-0.2202606201171875
1702338747876560000,53.955559814453125,9.313446044921875,0.3734893798828125,-0.0311279296875
1702338747975192600,54.054192626953125,9.749191284179688,0.30645751953125,0.5458831787109375
1702338748074313700,54.153313720703125,9.516952514648438,-1.41497802734375,0.9433135986328125
1702338748173373700,54.252373779296875,9.744400024414062,0.16998291015625,-0.6775665283203125
1702338748272739000,54.351739013671875,9.437942504882812,0.1987152099609375,-0.4046173095703125
1702338748371921200,54.450921142578125,10.261550903320312,0.1675872802734375,1.1372528076171875
1702338748471042300,54.550042236328125,9.454696655273438,-0.4022216796875,0.9217681884765625
1702338748569949700,54.64894970703125,8.880096435546875,1.242584228515625,-1.5873565673828125
1702338748669193000,54.74819287109375,10.120285034179688,-0.3256072998046875,-1.0343017578125
1702338748768466400,54.847466552734375,9.588775634765625,-2.0254974365234375,1.2880859375
1702338748867679200,54.94667919921875,10.287887573242188,-0.5099639892578125,0.9433135986328125
1702338748966739200,55.0457392578125,10.022125244140625,-0.311248779296875,1.419769287109375
1702338749065860400,55.1448603515625,9.65582275390625,0.057464599609375,2.267303466796875
1702338749165103600,55.244103515625,7.60638427734375,-0.37109375,0.5051727294921875
1702338749264041500,55.34304150390625,10.814605712890625,-0.555450439453125,-1.4820098876953125
1702338749363254300,55.442254150390625,7.4459686279296875,0.2394256591796875,-3.4141387939453125
1702338749462410200,55.54141015625,9.598358154296875,0.73980712890625,-2.868255615234375
1702338749561531400,55.640531494140625,9.12908935546875,0.6895294189453125,-1.3910369873046875
1702338749660652500,55.739652587890625,8.118743896484375,1.8459320068359375,-5.130767822265625
1702338749759804200,55.83880419921875,9.777923583984375,0.062255859375,-2.877838134765625
1702338749858589400,55.93758935546875,9.30865478515625,0.2250518798828125,-2.159576416015625
1702338749958656500,56.03765649414063,9.509765625,-0.136474609375,-1.3934326171875
1702338750057197800,56.13619775390625,9.241622924804688,-1.45806884765625,-1.4604644775390625
1702338750156380000,56.2353798828125,10.347747802734375,-1.654388427734375,-1.374267578125
1702338750255653600,56.33465356445313,7.3406219482421875,0.4668731689453125,-0.0670318603515625
1702338750354744300,56.433744384765625,18.274948120117188,-0.004791259765625,-1.7573394775390625
1702338750453377000,56.532376953125,9.490615844726562,0.08380126953125,0.1795654296875
1702338750552711700,56.63171166992188,9.6031494140625,0.0670318603515625,0.0191497802734375
1702338750652107500,56.731107421875,9.4786376953125,0.088592529296875,0.1077423095703125
1702338750751228700,56.830228759765625,9.473861694335938,0.0335235595703125,0.131683349609375
1702338750850349800,56.929349853515625,9.658203125,0.0502777099609375,0.15802001953125
1702338750949470700,57.028470703125,9.662994384765625,0.0335235595703125,0.174774169921875
1702338751048592000,57.127591796875,9.684539794921875,0.0119781494140625,0.0981597900390625
1702338751147468800,57.22646875,9.665390014648438,0.0406951904296875,0.1460418701171875
1702338752654274300,58.7332744140625,9.639053344726562,-0.0023956298828125,0.11492919921875
1702338752753395500,58.8323955078125,9.631866455078125,0.026336669921875,0.110137939453125
1702338752852119800,58.931119873046875,9.658203125,0.0191497802734375,0.1077423095703125
1702338752952248000,59.031248046875,9.595962524414062,0.0335235595703125,0.1484375
1702338753050392600,59.129392578125,9.648635864257812,0.0670318603515625,0.122100830078125
1702338753149452500,59.22845263671875,9.662994384765625,0.0430908203125,0.1244964599609375
1702338753248573700,59.32757373046875,9.660598754882812,0.035919189453125,0.1173095703125
1702338753347938800,59.42693872070313,9.720458984375,0.035919189453125,0.1556243896484375
1702338753447304200,59.52630419921875,9.66778564453125,0.0550689697265625,0.1244964599609375
1702338753546272500,59.6252724609375,9.6773681640625,0.047882080078125,0.153228759765625
1702338753645424000,59.72442407226563,9.653427124023438,0.035919189453125,0.1388702392578125
1702338753745247200,59.824247314453125,9.665390014648438,0.0311279296875,0.12689208984375
1702338753843666400,59.92266650390625,9.672576904296875,0.0239410400390625,0.08380126953125
1702338753942787600,60.02178759765625,9.674972534179688,0.0550689697265625,0.1460418701171875
1702338754041878000,60.1208779296875,9.662994384765625,0.0071868896484375,0.1484375
1702338754140999200,60.219999267578125,9.670181274414062,0.035919189453125,0.1604156494140625
1702338754239845600,60.318845703125,9.706100463867188,0.08380126953125,0.1460418701171875
1702338754339668500,60.41866845703125,9.713272094726562,0.02154541015625,0.153228759765625
1702338754438362400,60.5173623046875,9.643844604492188,0.0670318603515625,0.215484619140625
1702338754537483500,60.6164833984375,9.586380004882812,0.0071868896484375,0.1244964599609375
1702338754636604700,60.715604736328125,9.62469482421875,0.0335235595703125,0.1460418701171875
1702338754735725800,60.814725830078125,9.662994384765625,0.0191497802734375,0.1125335693359375
1702338754834846700,60.9138466796875,9.648635864257812,0,0.0933685302734375
1702338754933845800,61.012845703125,9.66778564453125,0.0406951904296875,0.11492919921875
1702338755033058600,61.11205859375,9.670181274414062,0.0502777099609375,0.1795654296875
1702338755132179500,61.21117944335938,9.648635864257812,0.0239410400390625,0.12689208984375
1702338755232704500,61.31170458984375,9.674972534179688,0.0335235595703125,0.1173095703125
1702338755330635300,61.40963525390625,9.62469482421875,0.057464599609375,0.122100830078125
1702338755430397400,61.5093974609375,9.641448974609375,0.0550689697265625,0.15802001953125
1702338755529091300,61.60809130859375,9.610321044921875,0.0766143798828125,0.162811279296875
1702338755628029200,61.707029296875,9.653427124023438,0.0023956298828125,0.1244964599609375
1702338755727577600,61.80657763671875,9.646240234375,-0.004791259765625,0.1244964599609375
1702338755826240800,61.90524072265625,9.646240234375,0.088592529296875,0.136474609375
1702338755925362000,62.00436181640625,9.679763793945312,0.0550689697265625,0.079010009765625
1702338756024452600,62.10345263671875,9.653427124023438,0.0550689697265625,0.0861968994140625
1702338756123573500,62.20257348632813,9.641448974609375,0.0287322998046875,0.1053466796875
1702338757669563600,63.748563720703125,9.617507934570312,0.026336669921875,0.136474609375
1702338757768806700,63.847806640625,9.6151123046875,0.0383148193359375,0.1244964599609375
1702338757867531300,63.94653125,9.641448974609375,0.0430908203125,0.136474609375
1702338757967506700,64.04650659179687,9.65582275390625,0.0335235595703125,0.122100830078125
1702338758065803800,64.1448037109375,9.672576904296875,0.0406951904296875,0.12689208984375
1702338758164864000,64.24386401367188,9.658203125,0.02154541015625,0.110137939453125
1702338758263985000,64.34298486328125,9.6773681640625,0.0383148193359375,0.110137939453125
1702338758363319800,64.44231982421876,9.658203125,0.004791259765625,0.1556243896484375
1702338758462502000,64.541501953125,9.718063354492188,0.0502777099609375,0.122100830078125
1702338758561592300,64.64059228515625,9.627090454101562,0.0430908203125,0.1244964599609375
1702338758660469200,64.73946923828125,9.648635864257812,0.0454864501953125,0.131683349609375
1702338758760506000,64.83950610351563,9.63665771484375,0.0335235595703125,0.131683349609375
1702338758859047200,64.93804711914062,9.686935424804688,0.0406951904296875,0.1388702392578125
1702338758958168300,65.03716821289062,9.595962524414062,0.062255859375,0.122100830078125
1702338759057259000,65.13625903320313,9.670181274414062,0.00958251953125,0.153228759765625
1702338759156380000,65.2353798828125,9.660598754882812,0.0191497802734375,0.131683349609375
1702338759255104500,65.3341044921875,9.662994384765625,0.035919189453125,0.0766143798828125
1702338759354957800,65.43395776367187,9.651031494140625,0.004791259765625,0.100555419921875
1702338759453743400,65.53274340820313,9.670181274414062,0.0430908203125,0.1244964599609375
1702338759552833800,65.63183374023437,9.682159423828125,0.0454864501953125,0.1484375
1702338759651955000,65.73095483398437,9.691726684570312,-0.0023956298828125,0.0933685302734375
1702338759751076000,65.830076171875,9.629486083984375,0.0143585205078125,0.1077423095703125
1702338759850197200,65.929197265625,9.641448974609375,0.0143585205078125,0.1244964599609375
1702338759949196300,66.0281962890625,9.63665771484375,0.0287322998046875,0.1197052001953125
1702338760048439300,66.12743920898437,9.643844604492188,0.0383148193359375,0.1771697998046875
1702338760147560400,66.226560546875,9.662994384765625,0.035919189453125,0.12689208984375
1702338760246864600,66.32586474609376,9.653427124023438,0.035919189453125,0.143646240234375
1702338760345985800,66.42498583984376,9.665390014648438,0.0191497802734375,0.1125335693359375
1702338760445228800,66.52422875976562,9.658203125,0.0383148193359375,0.122100830078125
1702338760544289000,66.6232890625,9.682159423828125,0.0239410400390625,0.1412506103515625
1702338760643349000,66.72234887695312,9.63665771484375,0.0335235595703125,0.12689208984375
1702338760742470100,66.82147021484376,9.646240234375,0.0335235595703125,0.100555419921875
1702338760841591300,66.92059130859376,9.634262084960938,0.0191497802734375,0.1484375
1702338760940743000,67.01974291992188,9.646240234375,0.026336669921875,0.1460418701171875
1702338761039833300,67.11883325195312,9.610321044921875,0.047882080078125,0.1077423095703125
1702338761139015400,67.21801538085937,9.703704833984375,0.0191497802734375,0.1556243896484375
1702338762665020400,68.7440205078125,9.641448974609375,0.0335235595703125,0.1340789794921875
1702338762764294100,68.84329418945312,9.629486083984375,0.026336669921875,0.1340789794921875
1702338762863384800,68.942384765625,9.651031494140625,0.016754150390625,0.1244964599609375
1702338762962567000,69.04156689453124,9.641448974609375,0.00958251953125,0.1412506103515625
1702338763061260800,69.1402607421875,9.662994384765625,0.026336669921875,0.143646240234375
1702338763160320800,69.23932080078124,9.643844604492188,0.06463623046875,0.1053466796875
1702338763259472400,69.33847241210937,9.658203125,0.0430908203125,0.1388702392578125
1702338763358868200,69.4378681640625,9.6893310546875,0.016754150390625,0.11492919921875
1702338763458019800,69.53701977539062,9.674972534179688,0.00958251953125,0.143646240234375
1702338763557140700,69.636140625,9.682159423828125,0.0311279296875,0.1460418701171875
1702338763656292400,69.73529223632812,9.653427124023438,0.0550689697265625,0.1340789794921875
1702338763755322000,69.83432202148437,9.696517944335938,0.0071868896484375,0.1125335693359375
1702338763854595600,69.933595703125,9.651031494140625,0.0143585205078125,0.1029510498046875
1702338763953716700,70.032716796875,9.696517944335938,0.02154541015625,0.1292877197265625
1702338764052838000,70.131837890625,9.6773681640625,0.02154541015625,0.1388702392578125
1702338764151928300,70.23092822265625,9.651031494140625,0.0670318603515625,0.1292877197265625
1702338764251080000,70.33007983398437,9.648635864257812,0.0454864501953125,0.1292877197265625
1702338764350048500,70.42904858398437,9.66778564453125,0.0311279296875,0.1819610595703125
1702338764449291800,70.52829174804687,9.65582275390625,0.016754150390625,0.11492919921875
1702338764548382200,70.62738232421874,9.696517944335938,0.0383148193359375,0.1244964599609375
1702338764647503400,70.72650341796874,9.679763793945312,0.0598602294921875,0.12689208984375
1702338764746624500,70.82562451171874,9.631866455078125,0.00958251953125,0.143646240234375
1702338764845745700,70.92474560546874,9.643844604492188,0.004791259765625,0.1053466796875
1702338764944622600,71.02362255859374,9.631866455078125,-0.004791259765625,0.1412506103515625
1702338765044598000,71.12359790039062,9.643844604492188,0.02154541015625,0.1604156494140625
1702338765143108900,71.22210888671874,9.634262084960938,0.0430908203125,0.100555419921875
1702338765242413000,71.3214130859375,9.665390014648438,0.047882080078125,0.1723785400390625
1702338765341534200,71.4205341796875,9.610321044921875,0.047882080078125,0.12689208984375
1702338765440624600,71.51962475585937,9.6893310546875,0,0.136474609375
1702338765539410200,71.61841015625,9.622299194335938,0.0454864501953125,0.143646240234375
1702338765639141600,71.7181416015625,9.672576904296875,0.0287322998046875,0.136474609375
1702338765737988000,71.81698803710937,9.65582275390625,0.0119781494140625,0.0933685302734375
1702338765837109000,71.91610888671875,9.627090454101562,0.035919189453125,0.1173095703125
1702338765936230100,72.01523022460937,9.622299194335938,0.06463623046875,0.1292877197265625
1702338766035351300,72.11435131835937,9.6151123046875,0.06463623046875,0.1077423095703125
1702338766134472400,72.21347241210937,9.643844604492188,0.0311279296875,0.07421875
1702338766233319000,72.31231884765624,9.63665771484375,0.08380126953125,0.12689208984375
1702338767660687000,73.73968701171874,9.65582275390625,0.0239410400390625,0.1340789794921875
1702338767759899600,73.83889965820312,9.658203125,0.0383148193359375,0.0933685302734375
1702338767859020800,73.93802075195312,9.627090454101562,0.0335235595703125,0.1412506103515625
1702338767958050300,74.03705029296874,9.69891357421875,0.047882080078125,0.1675872802734375
1702338768056866300,74.1358662109375,9.6773681640625,0.016754150390625,0.1077423095703125
1702338768155987200,74.2349873046875,9.660598754882812,0.0383148193359375,0.1173095703125
1702338768255108400,74.3341083984375,9.62469482421875,0.016754150390625,0.110137939453125
1702338768354473700,74.4334736328125,9.643844604492188,0.0335235595703125,0.100555419921875
1702338768453625300,74.53262524414062,9.646240234375,0.0023956298828125,0.12689208984375
1702338768552807400,74.63180737304687,9.65582275390625,0.0239410400390625,0.1604156494140625
1702338768652050400,74.73105053710937,9.648635864257812,0.047882080078125,0.1197052001953125
1702338768751019000,74.83001904296874,9.694122314453125,0.0670318603515625,0.11492919921875
1702338768850262300,74.92926220703124,9.6893310546875,0.0335235595703125,0.122100830078125
1702338768949383200,75.02838305664062,9.682159423828125,0.0406951904296875,0.122100830078125
1702338769048504300,75.12750439453124,9.612716674804688,0.035919189453125,0.122100830078125
1702338769147625500,75.22662548828124,9.658203125,0.0430908203125,0.122100830078125
1702338769246746600,75.32574658203124,9.65582275390625,0.004791259765625,0.136474609375
1702338769346020400,75.42502026367187,9.686935424804688,0.0071868896484375,0.184356689453125
1702338769444988700,75.52398876953124,9.610321044921875,0.02154541015625,0.143646240234375
1702338769544109800,75.62310986328124,9.564834594726562,-0.0550689697265625,0.3184356689453125
1702338769643231000,75.72223095703124,9.701309204101562,0.0430908203125,0.20111083984375
1702338769742352100,75.82135205078124,9.761154174804688,-0.0023956298828125,0.1173095703125
1702338769841473000,75.92047314453124,9.639053344726562,0.02154541015625,0.1412506103515625
1702338769940594200,76.01959423828124,9.641448974609375,0.0454864501953125,0.15802001953125
1702338770039776300,76.1187763671875,9.629486083984375,-0.0071868896484375,0.143646240234375
1702338770138867000,76.21786694335937,9.684539794921875,0.0287322998046875,0.1460418701171875
1702338770238171100,76.31717114257812,9.622299194335938,0.035919189453125,0.1460418701171875
1702338770337292300,76.41629223632812,9.648635864257812,0.0191497802734375,0.131683349609375
1702338770436413200,76.5154130859375,9.65582275390625,0.02154541015625,0.1029510498046875
1702338770535656400,76.61465649414062,9.69891357421875,0.0311279296875,0.1292877197265625
1702338770634380800,76.713380859375,9.622299194335938,0.057464599609375,0.0718231201171875
1702338770733776600,76.81277661132812,9.600753784179688,0.057464599609375,0.110137939453125
1702338770832897800,76.91189770507812,9.660598754882812,0.0239410400390625,0.06463623046875
1702338770932018700,77.01101879882812,9.665390014648438,0.0454864501953125,0.143646240234375
1702338771031139800,77.11013989257812,9.737213134765625,0.035919189453125,0.1029510498046875
1702338771130139000,77.20913891601562,9.670181274414062,0.0191497802734375,0.1723785400390625
1702338772656262000,78.73526196289062,9.720458984375,0.0239410400390625,0.1053466796875
1702338772755596500,78.83459643554687,9.643844604492188,0.057464599609375,0.162811279296875
1702338772854931500,78.93393139648437,9.686935424804688,0.0287322998046875,0.1173095703125
1702338772953778000,79.03277783203124,9.653427124023438,0.004791259765625,0.100555419921875
1702338773053539800,79.13253979492187,9.665390014648438,0.0383148193359375,0.136474609375
1702338773151867400,79.23086743164062,9.643844604492188,0.062255859375,0.131683349609375
1702338773250988500,79.32998852539062,9.660598754882812,0.035919189453125,0.131683349609375
1702338773350109700,79.42910961914062,9.703704833984375,0.0143585205078125,0.1197052001953125
1702338773449474800,79.52847485351562,9.66778564453125,0.00958251953125,0.1029510498046875
1702338773548687400,79.62768725585937,9.629486083984375,0.0311279296875,0.1053466796875
1702338773647869700,79.72686962890624,9.679763793945312,0.0239410400390625,0.11492919921875
1702338773746990600,79.82599047851562,9.672576904296875,0,0.153228759765625
1702338773846478000,79.92547802734374,9.651031494140625,0.0191497802734375,0.1484375
1702338773945263400,80.02426342773437,9.6151123046875,-0.0143585205078125,0.1244964599609375
1702338774044354000,80.12335400390624,9.63665771484375,-0.0191497802734375,0.1412506103515625
1702338774143505700,80.22250561523437,9.639053344726562,0,0.143646240234375
1702338774242626600,80.32162646484375,9.629486083984375,0.02154541015625,0.069427490234375
1702338774341412000,80.420412109375,9.643844604492188,0.00958251953125,0.100555419921875
1702338774440991000,80.51999096679687,9.63665771484375,0.0430908203125,0.1340789794921875
1702338774539990000,80.61898999023437,9.639053344726562,0.0406951904296875,0.1388702392578125
1702338774639446800,80.71844677734374,9.646240234375,0.0191497802734375,0.1244964599609375
1702338774738293200,80.81729321289062,9.643844604492188,0.062255859375,0.1484375
1702338774837383700,80.9163837890625,9.629486083984375,0.0598602294921875,0.131683349609375
1702338774936504800,81.0155048828125,9.684539794921875,0.05267333984375,0.1053466796875
1702338775035290400,81.11429028320312,9.646240234375,0.0454864501953125,0.1173095703125
1702338775134777600,81.21377758789062,9.696517944335938,0.062255859375,0.1029510498046875
1702338775234081800,81.31308178710937,9.65582275390625,0.016754150390625,0.1388702392578125
1702338775333233400,81.4122333984375,9.66778564453125,0.026336669921875,0.143646240234375
1702338775432354600,81.5113544921875,9.662994384765625,0.0502777099609375,0.1484375
1702338775532635100,81.61163525390624,9.66778564453125,0.026336669921875,0.122100830078125
1702338775630352600,81.7093525390625,9.684539794921875,0.0502777099609375,0.1173095703125
1702338775729443000,81.80844311523437,9.641448974609375,0.0311279296875,0.0981597900390625
1702338775828839000,81.9078388671875,9.658203125,-0.016754150390625,0.15802001953125
1702338775927960000,82.0069599609375,9.641448974609375,0.0143585205078125,0.1388702392578125
1702338776027081000,82.1060810546875,9.660598754882812,0.069427490234375,0.1173095703125
1702338776126416000,82.20541577148437,9.514556884765625,0.047882080078125,0.1053466796875
1702338776225292800,82.30429272460937,9.629486083984375,0.0383148193359375,0.1604156494140625
1702338777671903700,83.75090380859375,9.6151123046875,0.0430908203125,0.1604156494140625
1702338777771391200,83.85039111328125,9.65582275390625,0.0335235595703125,0.122100830078125
1702338777870542800,83.94954296875,9.646240234375,0.026336669921875,0.1460418701171875
1702338777969664000,84.0486640625,9.631866455078125,0.0143585205078125,0.1867523193359375
1702338778068846000,84.14784619140624,9.646240234375,0.004791259765625,0.08380126953125
1702338778167478800,84.24647875976562,9.701309204101562,0.0406951904296875,0.1077423095703125
1702338778266569500,84.34556958007812,9.679763793945312,0.0430908203125,0.1412506103515625
1702338778365690400,84.4446904296875,9.653427124023438,0.0287322998046875,0.09576416015625
1702338778465086200,84.54408618164062,9.672576904296875,0.00958251953125,0.1340789794921875
1702338778564268300,84.64326831054687,9.634262084960938,0.0119781494140625,0.110137939453125
1702338778663450600,84.74245068359374,9.651031494140625,0.0143585205078125,0.1077423095703125
1702338778762632700,84.8416328125,9.66778564453125,0.0335235595703125,0.1556243896484375
1702338778861692700,84.94069262695312,9.708480834960938,0.016754150390625,0.1508331298828125
1702338778960844300,85.03984423828125,9.6151123046875,0.035919189453125,0.12689208984375
1702338779059996000,85.13899584960937,9.679763793945312,0.0406951904296875,0.1412506103515625
1702338779159117000,85.23811694335937,9.713272094726562,0.0311279296875,0.1604156494140625
1702338779258238200,85.33723828125,9.691726684570312,0.0454864501953125,0.1556243896484375
1702338779357389800,85.43638989257812,9.653427124023438,0.0287322998046875,0.16998291015625
1702338779456938000,85.53593798828125,9.641448974609375,0.0143585205078125,0.1340789794921875
1702338779555601400,85.63460131835937,9.646240234375,0.004791259765625,0.110137939453125
1702338779654722600,85.73372265625,9.670181274414062,0.0406951904296875,0.1244964599609375
1702338779753874200,85.83287426757812,9.662994384765625,0.0239410400390625,0.1292877197265625
1702338779852964600,85.93196459960937,9.627090454101562,0.0239410400390625,0.1604156494140625
1702338779952085800,86.03108569335937,9.665390014648438,0.0383148193359375,0.1723785400390625
1702338780050810000,86.12981005859375,9.672576904296875,0.062255859375,0.1292877197265625
1702338780150877200,86.22987719726562,9.643844604492188,0.0406951904296875,0.1244964599609375
1702338780249571000,86.32857104492187,9.691726684570312,0.0311279296875,0.1556243896484375
1702338780348692200,86.42769213867187,9.660598754882812,0.0191497802734375,0.1244964599609375
1702338780448454100,86.5274541015625,9.682159423828125,0.0406951904296875,0.1388702392578125
1702338780546934300,86.62593432617187,9.653427124023438,0.0311279296875,0.1460418701171875
1702338780645597700,86.72459765625,9.679763793945312,0.0023956298828125,0.1340789794921875
1702338780745451300,86.824451171875,9.658203125,0.016754150390625,0.100555419921875
1702338780844480800,86.92348071289062,9.634262084960938,0.0383148193359375,0.0933685302734375
1702338780944029200,87.023029296875,9.684539794921875,0.016754150390625,0.1508331298828125
1702338781042539800,87.12153979492187,9.643844604492188,0,0.122100830078125
1702338781141630500,87.22063037109375,9.682159423828125,0.0287322998046875,0.1197052001953125
1702338781240782000,87.31978198242187,9.665390014648438,0.004791259765625,0.1292877197265625
1702338781339720000,87.41871997070312,9.672576904296875,0.0287322998046875,0.1484375
1702338782647612000,88.72661181640625,9.686935424804688,0.057464599609375,0.1340789794921875
1702338782746733000,88.82573315429687,9.679763793945312,0.0191497802734375,0.1292877197265625
1702338782846159400,88.92515942382812,9.679763793945312,0.0119781494140625,0.110137939453125
1702338782945341400,89.02434155273437,9.643844604492188,-0.00958251953125,0.1604156494140625
1702338783044035300,89.12303540039062,9.682159423828125,0.047882080078125,0.1292877197265625
1702338783144499200,89.22349926757812,9.665390014648438,0.0119781494140625,0.1053466796875
1702338783242216400,89.32121655273437,9.646240234375,0.0023956298828125,0.136474609375
1702338783341337300,89.42033740234375,9.691726684570312,0.0430908203125,0.136474609375
1702338783440580600,89.51958056640625,9.658203125,0.016754150390625,0.1292877197265625
1702338783539884800,89.618884765625,9.701309204101562,0.0143585205078125,0.1652069091796875
1702338783639067000,89.71806689453125,9.62469482421875,0.016754150390625,0.12689208984375
1702338783738096400,89.81709643554687,9.648635864257812,0.08380126953125,0.11492919921875
1702338783837095400,89.91609545898437,9.6031494140625,0.016754150390625,0.090972900390625
1702338783936308200,90.01530810546875,9.665390014648438,0,0.1508331298828125
1702338784035459800,90.1144599609375,9.672576904296875,0.02154541015625,0.1053466796875
1702338784134519800,90.21351977539062,9.665390014648438,0.0119781494140625,0.131683349609375
1702338784233610500,90.31261059570312,9.665390014648438,0.0430908203125,0.1340789794921875
1702338784332701000,90.41170092773437,9.631866455078125,0.0191497802734375,0.110137939453125
1702338784431547400,90.51054736328125,9.610321044921875,0.0287322998046875,0.143646240234375
1702338784530912800,90.60991284179687,9.660598754882812,0.0023956298828125,0.1412506103515625
1702338784630003200,90.70900317382812,9.662994384765625,0.035919189453125,0.16998291015625
1702338784729124400,90.80812426757812,9.684539794921875,0.0670318603515625,0.122100830078125
1702338784828184300,90.90718432617187,9.703704833984375,0.035919189453125,0.1460418701171875
1702338784927305500,91.00630541992187,9.627090454101562,0,0.0981597900390625
1702338785026426600,91.10542651367187,9.643844604492188,0.00958251953125,0.1412506103515625
1702338785125883400,91.20488330078125,9.6773681640625,0.0670318603515625,0.16998291015625
1702338785224790800,91.30379077148437,9.653427124023438,0.0311279296875,0.1244964599609375
1702338785323972900,91.40297290039062,9.648635864257812,0.026336669921875,0.1484375
1702338785423002600,91.50200268554687,9.653427124023438,0.0335235595703125,0.1053466796875
1702338785522154000,91.60115405273437,9.646240234375,0.069427490234375,0.122100830078125
1702338785620726000,91.69972607421874,9.651031494140625,0.0454864501953125,0.1484375
1702338785720426800,91.7994267578125,9.679763793945312,0.026336669921875,0.153228759765625
1702338785819487000,91.89848706054687,9.631866455078125,0.02154541015625,0.12689208984375
1702338785918577400,91.99757739257812,9.6893310546875,-0.0071868896484375,0.09576416015625
1702338786018827800,92.09782788085937,9.662994384765625,0.0071868896484375,0.1244964599609375
1702338786116789200,92.19578930664062,9.670181274414062,0.047882080078125,0.11492919921875
1702338786215910100,92.29491015625,9.653427124023438,0.0287322998046875,0.09576416015625
1702338786314634500,92.39363452148437,9.682159423828125,0.0454864501953125,0.11492919921875
1702338786414152400,92.49315234375,9.651031494140625,0.0191497802734375,0.131683349609375
1702338786513182000,92.59218188476562,9.672576904296875,0.069427490234375,0.122100830078125
1702338787662321400,93.7413212890625,9.670181274414062,0.035919189453125,0.136474609375
1702338787761747700,93.84074780273437,9.648635864257812,0.0119781494140625,0.1340789794921875
1702338787860899300,93.9398994140625,9.627090454101562,0.02154541015625,0.11492919921875
1702338787959623700,94.03862377929687,9.643844604492188,0.0454864501953125,0.1029510498046875
1702338788059080400,94.13808056640624,9.66778564453125,0.0430908203125,0.136474609375
1702338788157804800,94.2368046875,9.651031494140625,0.0335235595703125,0.1460418701171875
1702338788256895200,94.33589526367187,9.658203125,0.0550689697265625,0.1173095703125
1702338788356016400,94.43501635742187,9.653427124023438,0.0383148193359375,0.09576416015625
1702338788455351000,94.53435107421875,9.641448974609375,0.004791259765625,0.1197052001953125
1702338788554502700,94.63350268554687,9.658203125,-0.00958251953125,0.15802001953125
1702338788653746000,94.73274584960937,9.660598754882812,0.035919189453125,0.1508331298828125
1702338788752714500,94.83171459960937,9.660598754882812,0.0239410400390625,0.1077423095703125
1702338788852140800,94.93114086914062,9.631866455078125,0.0023956298828125,0.1460418701171875
1702338788950956500,95.02995654296875,9.672576904296875,0.0119781494140625,0.1197052001953125
1702338789050047200,95.12904711914062,9.62469482421875,0.0406951904296875,0.1484375
1702338789149168400,95.22816845703124,9.701309204101562,0.0239410400390625,0.12689208984375
1702338789248258800,95.3272587890625,9.646240234375,0.02154541015625,0.1460418701171875
1702338789347013600,95.426013671875,9.646240234375,0.0287322998046875,0.153228759765625
1702338789446562000,95.52556201171875,9.660598754882812,0.0550689697265625,0.0814056396484375
1702338789545530600,95.62453051757812,9.65582275390625,0.004791259765625,0.0981597900390625
1702338789644621000,95.72362109375,9.713272094726562,0.0239410400390625,0.11492919921875
1702338789743742200,95.8227421875,9.639053344726562,0.0335235595703125,0.1412506103515625
1702338789842833000,95.9218330078125,9.674972534179688,0.0311279296875,0.162811279296875
1702338789941923300,96.02092333984375,9.660598754882812,0.0430908203125,0.11492919921875
1702338790040761000,96.11976098632813,9.62469482421875,0.0335235595703125,0.110137939453125
1702338790140126200,96.21912622070313,9.66778564453125,0.0311279296875,0.143646240234375
1702338790239400000,96.31839990234376,9.639053344726562,0.0406951904296875,0.1484375
1702338790338521000,96.41752099609376,9.672576904296875,0.0430908203125,0.1412506103515625
1702338790437611800,96.51661181640625,9.648635864257812,0.0287322998046875,0.131683349609375
1702338790536702200,96.6157021484375,9.672576904296875,0.0071868896484375,0.122100830078125
1702338790635853800,96.71485375976563,9.639053344726562,0.016754150390625,0.136474609375
1702338790734944500,96.81394458007813,9.610321044921875,0.0239410400390625,0.1723785400390625
1702338790834065400,96.9130654296875,9.639053344726562,0.016754150390625,0.174774169921875
1702338790933125600,97.01212573242188,9.641448974609375,0.0406951904296875,0.1556243896484375
1702338791032246800,97.11124682617188,9.653427124023438,0.0071868896484375,0.1077423095703125
1702338791131337200,97.21033715820313,9.65582275390625,0.0287322998046875,0.1604156494140625
1702338791230519300,97.30951928710938,9.694122314453125,-0.0023956298828125,0.1508331298828125
1702338791329579500,97.40857958984375,9.686935424804688,0.0143585205078125,0.1197052001953125
1702338791428670000,97.507669921875,9.66778564453125,0.057464599609375,0.136474609375
1702338791527638500,97.60663842773438,9.646240234375,0.0598602294921875,0.11492919921875
1702338791626729000,97.70572900390626,9.63665771484375,0.026336669921875,0.1484375
1702338791725880600,97.80488061523438,9.674972534179688,0.0430908203125,0.136474609375
1702338791825520600,97.90452075195313,9.651031494140625,0.016754150390625,0.143646240234375
1702338791923665200,98.0026650390625,9.641448974609375,-0.0071868896484375,0.1484375
1702338792022786300,98.10178637695313,9.617507934570312,0.026336669921875,0.0933685302734375
1702338792121846300,98.20084619140626,9.66778564453125,0.0287322998046875,0.131683349609375
1702338792221211400,98.30021142578126,9.634262084960938,0.0287322998046875,0.1340789794921875
1702338792320302000,98.39930200195313,9.65582275390625,-0.016754150390625,0.1173095703125
1702338792419575800,98.49857592773438,9.627090454101562,0.07421875,0.1197052001953125
1702338792519032600,98.59803247070313,9.62469482421875,0.0239410400390625,0.15802001953125
1702338792617360100,98.69636010742188,9.679763793945312,0.0191497802734375,0.143646240234375
1702338792716725500,98.7957255859375,9.672576904296875,0.0239410400390625,0.153228759765625
1702338792815968500,98.89496850585938,9.651031494140625,0.0239410400390625,0.122100830078125
1702338792915059200,98.99405908203126,9.691726684570312,0.06463623046875,0.1915435791015625
1702338793013875200,99.09287524414063,9.610321044921875,0.0430908203125,0.1604156494140625
1702338793112904700,99.19190478515625,9.653427124023438,-0.02154541015625,0.162811279296875
1702338793211934200,99.29093432617188,9.639053344726562,0.02154541015625,0.1340789794921875
1702338793311055400,99.39005541992188,9.665390014648438,0.0191497802734375,0.1652069091796875
1702338793410207000,99.48920703125,9.65582275390625,-0.00958251953125,0.1053466796875
1702338793509572000,99.58857202148438,9.627090454101562,0.0454864501953125,0.162811279296875
1702338793608693200,99.687693359375,9.682159423828125,0.0502777099609375,0.11492919921875
1702338793707875300,99.78687524414063,9.672576904296875,0.00958251953125,0.1652069091796875
1702338793806874400,99.88587426757813,9.622299194335938,0.026336669921875,0.1556243896484375
1702338793906087000,99.9850869140625,9.622299194335938,0.0718231201171875,0.1125335693359375
1702338794005208000,100.0842080078125,9.653427124023438,0.0143585205078125,0.11492919921875
1702338794104329200,100.1833291015625,9.679763793945312,0.026336669921875,0.162811279296875
1702338794203419600,100.28241967773438,9.701309204101562,0.0598602294921875,0.136474609375
1702338794302480000,100.38147998046875,9.66778564453125,0.0239410400390625,0.136474609375
1702338794402028000,100.48102807617188,9.653427124023438,0.035919189453125,0.1460418701171875
1702338794500722000,100.57972192382813,9.648635864257812,0.0071868896484375,0.131683349609375
1702338794599843000,100.67884301757813,9.634262084960938,0.0598602294921875,0.1292877197265625
1702338794698964200,100.77796411132813,9.6773681640625,0.0550689697265625,0.153228759765625
1702338794798054700,100.8770546875,9.643844604492188,0.035919189453125,0.1412506103515625
1702338794897145300,100.97614526367188,9.682159423828125,0.016754150390625,0.122100830078125
1702338794996419000,101.07541918945313,9.660598754882812,0.062255859375,0.122100830078125
1702338795095967500,101.17496752929688,9.686935424804688,0.026336669921875,0.1484375
1702338795194661000,101.2736611328125,9.660598754882812,0.02154541015625,0.16998291015625
1702338795293782300,101.3727822265625,9.658203125,0.0454864501953125,0.1244964599609375
1702338795392873000,101.471873046875,9.643844604492188,0.0766143798828125,0.090972900390625
1702338795491993900,101.57099389648438,9.6031494140625,0.0430908203125,0.12689208984375
1702338795590657300,101.6696572265625,9.672576904296875,-0.00958251953125,0.136474609375
1702338795690480400,101.76948046875,9.62469482421875,-0.02154541015625,0.136474609375
1702338795789357300,101.868357421875,9.63665771484375,0.004791259765625,0.1173095703125
1702338795888447700,101.96744775390626,9.653427124023438,0.047882080078125,0.15802001953125
1702338795987569000,102.06656884765626,9.662994384765625,0.0311279296875,0.1244964599609375
1702338796086659600,102.16565966796875,9.651031494140625,0.0598602294921875,0.15802001953125
1702338796185750000,102.26475,9.66778564453125,0.004791259765625,0.1292877197265625
1702338796284627000,102.363626953125,9.643844604492188,0.026336669921875,0.1077423095703125
1702338796383961900,102.4629619140625,9.648635864257812,0.0239410400390625,0.1029510498046875
1702338796483723800,102.56272387695313,9.641448974609375,0.0335235595703125,0.153228759765625
1702338796582295600,102.66129565429688,9.694122314453125,0.0311279296875,0.11492919921875
1702338796680806100,102.75980615234376,9.634262084960938,0.0335235595703125,0.143646240234375
1702338796780263000,102.85926293945313,9.670181274414062,0.0119781494140625,0.153228759765625
1702338796878956800,102.95795678710938,9.643844604492188,0.016754150390625,0.11492919921875
1702338796978108400,103.0571083984375,9.63665771484375,0.0502777099609375,0.1125335693359375
1702338797077229600,103.1562294921875,9.634262084960938,0.0311279296875,0.1556243896484375
1702338797176564200,103.25556420898438,9.629486083984375,0.0191497802734375,0.11492919921875
1702338797275685400,103.35468530273438,9.6893310546875,0.0071868896484375,0.1652069091796875
1702338797374837000,103.4538369140625,9.665390014648438,-0.0071868896484375,0.1197052001953125
1702338797473836000,103.5528359375,9.6893310546875,0.047882080078125,0.1652069091796875
1702338797572804600,103.6518046875,9.62469482421875,0.0023956298828125,0.122100830078125
1702338797672169700,103.75116967773438,9.662994384765625,0.0454864501953125,0.1292877197265625
1702338797771443500,103.850443359375,9.670181274414062,0.0119781494140625,0.1460418701171875
1702338797870564600,103.94956469726563,9.634262084960938,0.0311279296875,0.1292877197265625
1702338797969289000,104.0482890625,9.641448974609375,0.0335235595703125,0.1244964599609375
1702338798069417000,104.1484169921875,9.653427124023438,0.0311279296875,0.1388702392578125
1702338798167500500,104.24650048828126,9.62469482421875,-0.026336669921875,0.1197052001953125
1702338798266591200,104.34559130859375,9.660598754882812,0.0335235595703125,0.110137939453125
1702338798365681700,104.444681640625,9.662994384765625,0.0430908203125,0.110137939453125
1702338798465077500,104.54407739257813,9.66778564453125,-0.0023956298828125,0.1197052001953125
1702338798564229000,104.64322900390626,9.670181274414062,0.02154541015625,0.1460418701171875
1702338798663441700,104.74244165039063,9.651031494140625,0.0239410400390625,0.131683349609375
1702338798762166000,104.841166015625,9.643844604492188,0.00958251953125,0.162811279296875
1702338798861653500,104.94065356445313,9.686935424804688,0.0239410400390625,0.1197052001953125
1702338798960744000,105.03974389648438,9.665390014648438,0.0383148193359375,0.122100830078125
1702338799059895600,105.1388955078125,9.679763793945312,0.026336669921875,0.131683349609375
1702338799159016700,105.2380166015625,9.6893310546875,0.0191497802734375,0.1340789794921875
1702338799258137900,105.33713793945313,9.63665771484375,0.016754150390625,0.153228759765625
1702338799357014800,105.43601489257813,9.660598754882812,0.0143585205078125,0.0981597900390625
1702338799456837600,105.53583764648438,9.679763793945312,0.0143585205078125,0.1484375
1702338799555470600,105.634470703125,9.65582275390625,0.0191497802734375,0.1508331298828125
1702338799654561000,105.73356103515626,9.63665771484375,0.0383148193359375,0.1292877197265625
1702338799753682200,105.83268212890626,9.643844604492188,0.0335235595703125,0.1244964599609375
1702338799852803300,105.93180322265626,9.648635864257812,0.062255859375,0.1388702392578125
1702338799952229600,106.03122973632813,9.691726684570312,0.0311279296875,0.131683349609375
1702338800050862300,106.1298623046875,9.66778564453125,0.0766143798828125,0.1244964599609375
1702338800150166500,106.22916650390626,9.658203125,0.05267333984375,0.07421875
1702338800249440300,106.32844018554688,9.682159423828125,0.0191497802734375,0.15802001953125
1702338800348561400,106.4275615234375,9.634262084960938,-0.0071868896484375,0.20111083984375
1702338800447682600,106.5266826171875,9.665390014648438,-0.0071868896484375,0.0981597900390625
1702338800546651000,106.62565087890626,9.662994384765625,0.0239410400390625,0.1508331298828125
1702338800646229800,106.72522973632813,9.653427124023438,0.026336669921875,0.122100830078125
1702338800745015300,106.82401538085938,9.670181274414062,0.026336669921875,0.1675872802734375
1702338800844105700,106.92310571289063,9.662994384765625,0.0311279296875,0.136474609375
1702338800943227000,107.02222680664063,9.651031494140625,0.0335235595703125,0.1244964599609375
1702338801042378500,107.12137841796876,9.660598754882812,0.0502777099609375,0.1484375
1702338801141438500,107.2204384765625,9.622299194335938,0.0119781494140625,0.1029510498046875
1702338801240529200,107.31952905273438,9.634262084960938,0.00958251953125,0.136474609375
1702338801339955500,107.41895556640625,9.658203125,0.016754150390625,0.162811279296875
1702338801439076600,107.51807666015625,9.63665771484375,0.0335235595703125,0.16998291015625
1702338801537862000,107.61686181640626,9.665390014648438,0.0143585205078125,0.1388702392578125
1702338801636921900,107.715921875,9.631866455078125,0.0670318603515625,0.162811279296875
1702338801735539200,107.81453930664063,9.598358154296875,0.0239410400390625,0.122100830078125
1702338801835850500,107.9148505859375,9.643844604492188,0.004791259765625,0.136474609375
1702338801933781500,108.01278149414063,9.634262084960938,0.004791259765625,0.1292877197265625
1702338802032872000,108.11187182617188,9.6773681640625,0.0119781494140625,0.1412506103515625
1702338802131993000,108.2109931640625,9.648635864257812,0.05267333984375,0.1029510498046875
1702338802231358500,108.3103583984375,9.660598754882812,0.047882080078125,0.1125335693359375
1702338802330449000,108.40944897460938,9.660598754882812,0.026336669921875,0.136474609375
1702338802429692200,108.50869213867188,9.631866455078125,0.0119781494140625,0.122100830078125
1702338802529423600,108.60842358398438,9.65582275390625,0.02154541015625,0.131683349609375
1702338802627476500,108.7064765625,9.63665771484375,0.035919189453125,0.18914794921875
1702338802726964000,108.8059638671875,9.651031494140625,0.0239410400390625,0.1340789794921875
1702338802826115600,108.90511547851563,9.665390014648438,0.0406951904296875,0.1077423095703125
1702338802925267200,109.00426708984375,9.641448974609375,0.0287322998046875,0.1460418701171875
1702338803024266000,109.10326586914063,9.63665771484375,0.016754150390625,0.1244964599609375
1702338803123021000,109.20202099609375,9.631866455078125,0.0143585205078125,0.09576416015625
1702338803222050600,109.30105053710938,9.65582275390625,0.0311279296875,0.1053466796875
1702338803321171700,109.40017163085938,9.653427124023438,0.02154541015625,0.1484375
1702338803420536800,109.49953686523438,9.65582275390625,0.035919189453125,0.1723785400390625
1702338803519627500,109.59862744140625,9.658203125,0.0239410400390625,0.11492919921875
1702338803618779100,109.69777905273438,9.660598754882812,0.05267333984375,0.131683349609375
1702338803717930800,109.7969306640625,9.631866455078125,-0.02154541015625,0.1604156494140625
1702338803817265400,109.89626538085938,9.639053344726562,0.0119781494140625,0.0981597900390625
1702338803916172800,109.9951728515625,9.643844604492188,0.0718231201171875,0.1388702392578125
1702338804015263500,110.09426342773438,9.63665771484375,0.02154541015625,0.136474609375
1702338804114384400,110.19338427734375,9.651031494140625,0.0143585205078125,0.11492919921875
1702338804213475000,110.29247509765625,9.651031494140625,0.047882080078125,0.1556243896484375
1702338804312931800,110.39193188476563,9.641448974609375,0.0119781494140625,0.12689208984375
1702338804411747800,110.49074780273438,9.653427124023438,0.0502777099609375,0.136474609375
1702338804510747000,110.58974682617188,9.6893310546875,-0.0023956298828125,0.1244964599609375
1702338804609868000,110.68886791992188,9.641448974609375,0,0.131683349609375
1702338804708958500,110.78795849609375,9.651031494140625,0.0191497802734375,0.100555419921875
1702338804808049200,110.88704907226563,9.651031494140625,0.0287322998046875,0.100555419921875
1702338804907139600,110.9861396484375,9.665390014648438,0.0119781494140625,0.1125335693359375
1702338805005986000,111.08498608398438,9.691726684570312,-0.0119781494140625,0.11492919921875
1702338805105198600,111.18419848632813,9.682159423828125,0.02154541015625,0.1412506103515625
1702338805204441900,111.28344189453125,9.648635864257812,0.0335235595703125,0.1652069091796875
1702338805303593500,111.38259350585938,9.639053344726562,0.02154541015625,0.143646240234375
1702338805402653400,111.4816533203125,9.612716674804688,0.035919189453125,0.174774169921875
1702338805501805000,111.58080517578125,9.670181274414062,0.0311279296875,0.088592529296875
1702338805600926200,111.67992626953125,9.662994384765625,0.062255859375,0.153228759765625
1702338805700871400,111.77987133789063,9.660598754882812,0.0430908203125,0.153228759765625
1702338805799046400,111.87804638671875,9.670181274414062,0.026336669921875,0.12689208984375
1702338805898136800,111.97713671875,9.648635864257812,0.02154541015625,0.1987152099609375
1702338805997227500,112.0762275390625,9.658203125,0.057464599609375,0.1388702392578125
1702338806096318200,112.17531811523438,9.696517944335938,0.0502777099609375,0.1173095703125
1702338806195408600,112.27440869140625,9.646240234375,0.0239410400390625,0.122100830078125
1702338806294682400,112.37368237304688,9.634262084960938,0.0814056396484375,0.1125335693359375
1702338806393620200,112.4726201171875,9.627090454101562,0.0406951904296875,0.136474609375
1702338806492741400,112.57174145507813,9.66778564453125,0,0.1412506103515625
1702338806591801600,112.67080151367188,9.6773681640625,0.0383148193359375,0.1460418701171875
1702338806690953200,112.769953125,9.653427124023438,-0.0023956298828125,0.122100830078125
1702338806789646800,112.86864672851563,9.660598754882812,0.0430908203125,0.1340789794921875
1702338806888768000,112.96776806640625,9.662994384765625,0.0191497802734375,0.1556243896484375
1702338806987858700,113.06685864257813,9.694122314453125,0.0239410400390625,0.1173095703125
1702338807086949000,113.16594921875,9.696517944335938,0.0550689697265625,0.08380126953125
1702338807186253300,113.26525341796875,9.648635864257812,0.05267333984375,0.1173095703125
1702338807285435600,113.364435546875,9.660598754882812,0.0119781494140625,0.11492919921875
1702338807384648200,113.46364819335938,9.63665771484375,0.0143585205078125,0.143646240234375
1702338807484227000,113.56322705078125,9.653427124023438,-0.00958251953125,0.1340789794921875
1702338807582493700,113.66149365234375,9.686935424804688,0.0239410400390625,0.1556243896484375
1702338807681798000,113.7607978515625,9.653427124023438,0.06463623046875,0.131683349609375
1702338807781071600,113.86007153320313,9.591171264648438,0.0119781494140625,0.1604156494140625
1702338807880223200,113.95922314453125,9.658203125,0.05267333984375,0.1244964599609375
1702338807979100200,114.05810009765625,9.66778564453125,0.0718231201171875,0.11492919921875
1702338808078007600,114.15700756835938,9.672576904296875,0.05267333984375,0.122100830078125
1702338808177037000,114.256037109375,9.631866455078125,0.0430908203125,0.1077423095703125
1702338808276158200,114.355158203125,9.662994384765625,-0.0023956298828125,0.1125335693359375
1702338808375401500,114.4544013671875,9.660598754882812,0.0287322998046875,0.1556243896484375
1702338808474675000,114.55367504882813,9.66778564453125,0.0287322998046875,0.1388702392578125
1702338808573765600,114.652765625,9.715667724609375,0.02154541015625,0.122100830078125
1702338808672947700,114.75194775390625,9.665390014648438,0.0766143798828125,0.1292877197265625
1702338808772099300,114.85109936523438,9.682159423828125,0.0502777099609375,0.110137939453125
1702338808871128800,114.95012890625,9.672576904296875,0.035919189453125,0.1675872802734375
1702338808970250000,115.04925,9.679763793945312,0.0143585205078125,0.1484375
1702338809069340700,115.14834057617188,9.622299194335938,-0.0071868896484375,0.1292877197265625
1702338809168461600,115.24746166992188,9.622299194335938,0.016754150390625,0.16998291015625
1702338809267552300,115.34655224609375,9.696517944335938,0.0670318603515625,0.1819610595703125
1702338809366551300,115.44555126953125,9.686935424804688,0.016754150390625,0.100555419921875
1702338809465703000,115.54470288085938,9.66778564453125,0.0550689697265625,0.1388702392578125
1702338809564793300,115.64379345703125,9.641448974609375,0.016754150390625,0.1077423095703125
1702338809663884000,115.74288403320313,9.665390014648438,0.035919189453125,0.1340789794921875
1702338809762974700,115.841974609375,9.691726684570312,0.0287322998046875,0.1340789794921875
1702338809862065200,115.94106518554688,9.674972534179688,0.035919189453125,0.136474609375
1702338809960820000,116.03982006835938,9.658203125,0.0406951904296875,0.1412506103515625
1702338810060215800,116.1392158203125,9.670181274414062,0.00958251953125,0.122100830078125
1702338810159886300,116.23888623046875,9.658203125,0.0406951904296875,0.1197052001953125
1702338810258580000,116.337580078125,9.651031494140625,0.0311279296875,0.1723785400390625
1702338810357945300,116.4369453125,9.622299194335938,0.047882080078125,0.1029510498046875
1702338810456822300,116.535822265625,9.634262084960938,0.0598602294921875,0.1652069091796875
1702338810555882200,116.63488232421875,9.670181274414062,0.0383148193359375,0.143646240234375
1702338810654973000,116.73397290039063,9.653427124023438,-0.0119781494140625,0.1771697998046875
1702338810754460200,116.83346020507813,9.684539794921875,0.0191497802734375,0.122100830078125
1702338810853154000,116.93215405273438,9.6773681640625,0.0119781494140625,0.1388702392578125
1702338810952244700,117.03124462890625,9.658203125,0.0287322998046875,0.136474609375
1702338811051304700,117.1303046875,9.653427124023438,0.02154541015625,0.1388702392578125
1702338811150242600,117.22924267578125,9.65582275390625,0,0.143646240234375
1702338811249546800,117.32854663085938,9.643844604492188,-0.00958251953125,0.122100830078125
1702338811348576500,117.42757641601563,9.660598754882812,0.0383148193359375,0.100555419921875
1702338811447667000,117.5266669921875,9.658203125,0.035919189453125,0.136474609375
1702338811546757600,117.62575756835938,9.6151123046875,0.0239410400390625,0.12689208984375
1702338811645817600,117.72481762695313,9.665390014648438,0.0335235595703125,0.1388702392578125
1702338811745396500,117.824396484375,9.670181274414062,-0.035919189453125,0.122100830078125
1702338811843510500,117.92251049804688,9.674972534179688,0.0335235595703125,0.153228759765625
1702338811942601000,118.02160107421875,9.684539794921875,0.0191497802734375,0.1484375
1702338812041691600,118.12069165039063,9.682159423828125,0.0335235595703125,0.1077423095703125
1702338812141118000,118.22011791992188,9.679763793945312,0.035919189453125,0.1292877197265625
1702338812240117000,118.31911694335938,9.648635864257812,0.0287322998046875,0.12689208984375
1702338812339238100,118.41823803710938,9.631866455078125,0.0406951904296875,0.1340789794921875
1702338812439122200,118.5181220703125,9.653427124023438,0.0143585205078125,0.088592529296875
1702338812537144600,118.61614453125,9.646240234375,0.0287322998046875,0.1173095703125
1702338812636631800,118.7156318359375,9.66778564453125,0.026336669921875,0.1244964599609375
1702338812735753000,118.8147529296875,9.694122314453125,0.0191497802734375,0.2082977294921875
1702338812834843400,118.91384350585938,9.691726684570312,0.02154541015625,0.162811279296875
1702338812933995000,119.0129951171875,9.63665771484375,0.016754150390625,0.1340789794921875
1702338813032628000,119.1116279296875,9.653427124023438,0.0311279296875,0.1292877197265625
1702338813131718400,119.21071850585938,9.651031494140625,0.0071868896484375,0.11492919921875
1702338813230778600,119.30977856445313,9.651031494140625,0.035919189453125,0.136474609375
1702338813330143700,119.40914379882813,9.660598754882812,0.026336669921875,0.1173095703125
1702338813429234400,119.508234375,9.651031494140625,0.069427490234375,0.153228759765625
1702338813528355600,119.60735546875,9.665390014648438,0.02154541015625,0.1125335693359375
1702338813627171300,119.70617138671875,9.66778564453125,0.0335235595703125,0.1292877197265625
1702338813726445000,119.80544506835938,9.643844604492188,0.0287322998046875,0.1675872802734375
1702338813825535700,119.90453564453125,9.648635864257812,0.0023956298828125,0.143646240234375
1702338813924748300,120.00374829101563,9.648635864257812,0.0814056396484375,0.1556243896484375
1702338814023839000,120.1028388671875,9.646240234375,0.0718231201171875,0.1197052001953125
1702338814122960000,120.2019599609375,9.682159423828125,0.0239410400390625,0.12689208984375
1702338814221623300,120.30062329101563,9.662994384765625,0.0502777099609375,0.110137939453125
1702338814321385200,120.40038525390625,9.629486083984375,0.057464599609375,0.1173095703125
1702338814420231700,120.49923168945313,9.684539794921875,0.00958251953125,0.136474609375
1702338814519322400,120.598322265625,9.643844604492188,0.0143585205078125,0.110137939453125
1702338814618412800,120.69741284179688,9.672576904296875,0.05267333984375,0.1412506103515625
1702338814717534000,120.79653393554688,9.65582275390625,0.026336669921875,0.1604156494140625
1702338814816624400,120.89562426757813,9.682159423828125,0.026336669921875,0.15802001953125
1702338814915593000,120.99459301757813,9.63665771484375,0.0670318603515625,0.1340789794921875
1702338815014836200,121.09383618164063,9.658203125,0.0143585205078125,0.12689208984375
1702338815113926700,121.1929267578125,9.682159423828125,0.0287322998046875,0.1460418701171875
1702338815213394400,121.29239453125,9.651031494140625,0.0143585205078125,0.136474609375
1702338815312271400,121.39127124023437,9.648635864257812,0.035919189453125,0.153228759765625
1702338815411361800,121.49036181640625,9.662994384765625,-0.0071868896484375,0.1508331298828125
1702338815510666000,121.589666015625,9.660598754882812,0.0239410400390625,0.136474609375
1702338815610550000,121.68955004882812,9.674972534179688,0.035919189453125,0.1173095703125
1702338815708633600,121.78763354492187,9.665390014648438,0.0071868896484375,0.1197052001953125
1702338815807754800,121.88675463867187,9.653427124023438,0.026336669921875,0.1244964599609375
1702338815906845200,121.98584521484375,9.672576904296875,0.057464599609375,0.1340789794921875
1702338816005966300,122.08496630859375,9.660598754882812,0.0143585205078125,0.1508331298828125
1702338816105057000,122.18405712890625,9.679763793945312,0.00958251953125,0.1723785400390625
1702338816204391700,122.2833916015625,9.6893310546875,0.0383148193359375,0.1508331298828125
1702338816303238100,122.38223803710937,9.66778564453125,-0.004791259765625,0.131683349609375
1702338816402298000,122.48129809570312,9.679763793945312,0.004791259765625,0.1412506103515625
1702338816501388800,122.58038891601562,9.686935424804688,-0.004791259765625,0.1292877197265625
1702338816600418300,122.67941821289062,9.662994384765625,0.0023956298828125,0.1125335693359375
1702338816699142700,122.778142578125,9.651031494140625,0.0239410400390625,0.1652069091796875
1702338816798904600,122.87790454101562,9.665390014648438,0.0191497802734375,0.131683349609375
1702338816897781500,122.97678149414062,9.65582275390625,-0.0143585205078125,0.12689208984375
1702338816996872200,123.0758720703125,9.643844604492188,0.0311279296875,0.11492919921875
1702338817095962600,123.17496264648437,9.660598754882812,0.00958251953125,0.143646240234375
1702338817195053300,123.27405322265625,9.670181274414062,0.0239410400390625,0.143646240234375
1702338817294144000,123.37314404296875,9.665390014648438,0.0287322998046875,0.11492919921875
1702338817392990200,123.471990234375,9.631866455078125,0.0239410400390625,0.122100830078125
1702338817492294400,123.57129443359375,9.686935424804688,0.0287322998046875,0.1460418701171875
1702338817591385000,123.67038500976562,9.662994384765625,0.0119781494140625,0.153228759765625
1702338817690475800,123.76947583007812,9.648635864257812,0.0143585205078125,0.1484375
1702338817789566200,123.86856616210937,9.6773681640625,0.026336669921875,0.131683349609375
1702338817888168400,123.96716845703125,9.672576904296875,0.016754150390625,0.1508331298828125
1702338817988022000,124.06702197265625,9.643844604492188,0.02154541015625,0.1125335693359375
1702338818086807600,124.1658076171875,9.653427124023438,0.07421875,0.1173095703125
1702338818185898000,124.26489794921875,9.662994384765625,0.0191497802734375,0.1292877197265625
1702338818284988700,124.36398876953125,9.679763793945312,0.0502777099609375,0.1484375
1702338818384079000,124.4630791015625,9.639053344726562,0.09576416015625,0.1508331298828125
1702338818483169800,124.56216967773437,9.634262084960938,0.0502777099609375,0.1604156494140625
1702338818641433900,124.72043383789062,9.662994384765625,0.0406951904296875,0.1508331298828125
1702338818740249900,124.81924975585937,9.658203125,0.057464599609375,0.1604156494140625
1702338818840042200,124.91904223632812,9.63665771484375,0.0191497802734375,0.100555419921875
1702338818938766600,125.0177666015625,9.641448974609375,0.0119781494140625,0.1292877197265625
1702338819038132000,125.11713208007812,9.691726684570312,0.0071868896484375,0.153228759765625
1702338819137344500,125.21634448242187,9.672576904296875,0.0335235595703125,0.11492919921875
1702338819235946800,125.31494677734375,9.670181274414062,0.0287322998046875,0.162811279296875
1702338819335312100,125.41431201171875,9.6893310546875,0.0119781494140625,0.1125335693359375
1702338819434402600,125.51340258789062,9.641448974609375,0.02154541015625,0.122100830078125
1702338819533493200,125.6124931640625,9.610321044921875,-0.004791259765625,0.1460418701171875
1702338819632584000,125.711583984375,9.684539794921875,0,0.1460418701171875
1702338819731674400,125.81067431640625,9.646240234375,0.0454864501953125,0.143646240234375
1702338819830337800,125.909337890625,9.662994384765625,0.0383148193359375,0.1292877197265625
1702338819929855500,126.00885546875,9.648635864257812,0.0239410400390625,0.122100830078125
1702338820028946200,126.1079462890625,9.66778564453125,0.0502777099609375,0.1197052001953125
1702338820129196300,126.2081962890625,9.660598754882812,0.047882080078125,0.1388702392578125
1702338820227127300,126.30612719726562,9.634262084960938,0.0383148193359375,0.1556243896484375
1702338820326248400,126.40524853515625,9.619903564453125,0.0383148193359375,0.1197052001953125
1702338820425186300,126.50418627929687,9.672576904296875,0.00958251953125,0.1340789794921875
1702338820524948200,126.6039482421875,9.629486083984375,0.004791259765625,0.1412506103515625
1702338820623520000,126.70252001953125,9.662994384765625,-0.004791259765625,0.088592529296875
1702338820722580200,126.80158032226562,9.648635864257812,0.05267333984375,0.1244964599609375
1702338820821854000,126.90085400390625,9.648635864257812,0.0239410400390625,0.136474609375
1702338820920853000,126.99985302734375,9.63665771484375,0.035919189453125,0.136474609375
1702338821019943400,127.098943359375,9.653427124023438,0.0311279296875,0.0981597900390625
1702338821118942500,127.1979423828125,9.672576904296875,0.0239410400390625,0.131683349609375
1702338821218063600,127.29706372070312,9.670181274414062,0.00958251953125,0.1197052001953125
1702338821317184800,127.39618481445312,9.658203125,0.0287322998046875,0.1388702392578125
1702338821416275200,127.49527514648437,9.65582275390625,0.0191497802734375,0.12689208984375
1702338821515335200,127.59433520507812,9.646240234375,-0.0311279296875,0.153228759765625
1702338821614639600,127.6936396484375,9.686935424804688,0.016754150390625,0.122100830078125
1702338821713455400,127.79245532226562,9.65582275390625,-0.0071868896484375,0.1053466796875
1702338821812149200,127.89114916992187,9.66778564453125,0.0311279296875,0.143646240234375
1702338821911240000,127.99023999023437,9.643844604492188,0.0071868896484375,0.136474609375
1702338822010757600,128.08975756835937,9.660598754882812,0.0287322998046875,0.1652069091796875
1702338822109848300,128.1888483886719,9.665390014648438,0.0311279296875,0.143646240234375
1702338822208847400,128.2878474121094,9.641448974609375,0.0335235595703125,0.1652069091796875
1702338822308182000,128.38718212890626,9.672576904296875,0.0119781494140625,0.088592529296875
1702338822406753800,128.48575390625,9.65582275390625,0.0071868896484375,0.1460418701171875
1702338822506180000,128.58518017578126,9.627090454101562,0.016754150390625,0.1077423095703125
1702338822605392600,128.684392578125,9.653427124023438,0.00958251953125,0.1197052001953125
1702338822704513800,128.783513671875,9.6773681640625,0.026336669921875,0.1340789794921875
1702338822803299000,128.88229907226562,9.634262084960938,0.0023956298828125,0.100555419921875
1702338822902298000,128.98129809570312,9.660598754882812,0.0191497802734375,0.1292877197265625
1702338823001419300,129.08041918945312,9.648635864257812,0.0119781494140625,0.1652069091796875
1702338823100510000,129.17951000976564,9.670181274414062,0.05267333984375,0.2082977294921875
1702338823199630800,129.278630859375,9.662994384765625,-0.0023956298828125,0.1197052001953125
1702338823298996200,129.37799633789064,9.662994384765625,0.057464599609375,0.1508331298828125
1702338823398086700,129.47708666992187,9.691726684570312,0.0550689697265625,0.1412506103515625
1702338823497238300,129.57623828125,9.65582275390625,0.0023956298828125,0.1556243896484375
1702338823595993300,129.67499340820314,9.674972534179688,0.016754150390625,0.11492919921875
1702338823695480600,129.77448046875,9.648635864257812,0.0287322998046875,0.0933685302734375
1702338823794571000,129.87357104492187,9.691726684570312,0.0239410400390625,0.1197052001953125
1702338823893661700,129.97266162109375,9.662994384765625,0.07421875,0.11492919921875
1702338823992813300,130.07181323242187,9.6893310546875,0.047882080078125,0.11492919921875
1702338824091842800,130.1708427734375,9.672576904296875,0.0311279296875,0.11492919921875
1702338824190841900,130.269841796875,9.63665771484375,0.0335235595703125,0.1652069091796875
1702338824290085000,130.36908520507814,9.646240234375,0.0335235595703125,0.1077423095703125
1702338824389175600,130.46817553710937,9.646240234375,0.0454864501953125,0.1556243896484375
1702338824488266200,130.5672663574219,9.65582275390625,0.0598602294921875,0.12689208984375
1702338824587417900,130.66641796875,9.672576904296875,0.0143585205078125,0.1340789794921875
1702338824686508300,130.76550830078125,9.646240234375,0.00958251953125,0.1388702392578125
1702338824785293800,130.8642939453125,9.660598754882812,0.0071868896484375,0.1484375
1702338824885330400,130.96433032226562,9.648635864257812,0.05267333984375,0.1173095703125
1702338824983841300,131.06284130859376,9.69891357421875,0.0119781494140625,0.1675872802734375
1702338825083481000,131.1624812011719,9.66778564453125,0.057464599609375,0.131683349609375
1702338825182419000,131.2614189453125,9.660598754882812,0.0335235595703125,0.1556243896484375
1702338825281296000,131.3602958984375,9.65582275390625,-0.0023956298828125,0.1388702392578125
1702338825380081400,131.45908129882812,9.6773681640625,0.0406951904296875,0.1173095703125
1702338825479935000,131.55893505859376,9.646240234375,0.0383148193359375,0.1556243896484375
1702338825578598100,131.65759814453125,9.65582275390625,0.0023956298828125,0.1029510498046875
1702338825677688800,131.75668872070312,9.639053344726562,0.0311279296875,0.162811279296875
1702338825776810000,131.85581005859376,9.674972534179688,0.0670318603515625,0.090972900390625
1702338825875870000,131.95486987304687,9.65582275390625,0.0383148193359375,0.1484375
1702338825974991000,132.0539912109375,9.65582275390625,0.0335235595703125,0.174774169921875
1702338826073837600,132.1528376464844,9.684539794921875,-0.004791259765625,0.1125335693359375
1702338826173219300,132.25221923828124,9.651031494140625,0.02154541015625,0.1197052001953125
1702338826272309800,132.35130981445312,9.658203125,0.0335235595703125,0.1292877197265625
1702338826371400400,132.450400390625,9.646240234375,0.0239410400390625,0.1460418701171875
1702338826470521600,132.549521484375,9.660598754882812,0.0287322998046875,0.12689208984375
1702338826569551000,132.64855102539062,9.651031494140625,0.016754150390625,0.1173095703125
1702338826669038300,132.74803833007812,9.66778564453125,0.0143585205078125,0.1675872802734375
1702338826767396600,132.84639672851563,9.641448974609375,0.0335235595703125,0.1604156494140625
1702338826866395600,132.94539575195313,9.660598754882812,-0.00958251953125,0.08380126953125
1702338826965760800,133.0447607421875,9.670181274414062,0.0502777099609375,0.1340789794921875
1702338827065004000,133.14400415039063,9.66778564453125,0.0550689697265625,0.1292877197265625
1702338827163942000,133.24294189453124,9.646240234375,0.0023956298828125,0.1053466796875
1702338827263032600,133.34203247070312,9.648635864257812,0.0383148193359375,0.1460418701171875
1702338827361817900,133.44081787109374,9.641448974609375,0.0239410400390625,0.1508331298828125
1702338827461335800,133.54033569335937,9.65582275390625,0.026336669921875,0.1795654296875
1702338827560487400,133.6394873046875,9.641448974609375,0.00958251953125,0.1652069091796875
1702338827659577900,133.73857788085937,9.622299194335938,0.0311279296875,0.1244964599609375
1702338827758271700,133.83727172851562,9.651031494140625,0.0071868896484375,0.1340789794921875
1702338827858857700,133.93785766601562,9.651031494140625,0.0071868896484375,0.09576416015625
1702338827956514000,134.03551416015625,9.665390014648438,0.0430908203125,0.1077423095703125
1702338828055604500,134.1346044921875,9.696517944335938,0.02154541015625,0.153228759765625
1702338828154634000,134.23363403320312,9.66778564453125,0.0239410400390625,0.131683349609375
1702338828254029800,134.33302978515624,9.641448974609375,0.0335235595703125,0.1508331298828125
1702338828353120500,134.43212060546875,9.631866455078125,0.0119781494140625,0.1508331298828125
1702338828452241400,134.53124145507812,9.682159423828125,0.016754150390625,0.153228759765625
1702338828551057400,134.63005737304687,9.658203125,-0.0023956298828125,0.0814056396484375
1702338828650392000,134.72939208984374,9.641448974609375,0.047882080078125,0.12689208984375
1702338828749665800,134.82866577148437,9.658203125,0.0191497802734375,0.1125335693359375
1702338828848787000,134.92778686523437,9.629486083984375,0.0335235595703125,0.15802001953125
1702338828947877600,135.02687768554688,9.660598754882812,0.0239410400390625,0.12689208984375
1702338829046968000,135.12596801757812,9.660598754882812,0.0430908203125,0.1412506103515625
1702338829146424800,135.2254248046875,9.670181274414062,0.0023956298828125,0.1460418701171875
1702338829245179600,135.3241796875,9.658203125,0.0143585205078125,0.100555419921875
1702338829344270300,135.42327026367187,9.631866455078125,0.0287322998046875,0.1652069091796875
1702338829443788000,135.5227880859375,9.641448974609375,-0.00958251953125,0.1508331298828125
1702338829542482000,135.62148193359374,9.665390014648438,0.0311279296875,0.1412506103515625
1702338829641572600,135.72057250976562,9.658203125,0.0311279296875,0.1412506103515625
1702338829740693800,135.81969384765625,9.679763793945312,0.047882080078125,0.143646240234375
1702338829840181000,135.91918090820312,9.691726684570312,0.026336669921875,0.136474609375
1702338829938844400,136.01784448242188,9.662994384765625,-0.0239410400390625,0.162811279296875
1702338830037934800,136.11693481445312,9.672576904296875,0.0502777099609375,0.136474609375
1702338830137056000,136.21605590820312,9.662994384765625,0.0143585205078125,0.1508331298828125
1702338830236299300,136.31529931640625,9.634262084960938,0.0239410400390625,0.162811279296875
1702338830334962400,136.41396240234374,9.627090454101562,0.00958251953125,0.1484375
1702338830435426300,136.51442626953124,9.66778564453125,0.035919189453125,0.15802001953125
1702338830533510000,136.61251000976563,9.665390014648438,0.0430908203125,0.143646240234375
1702338830632692000,136.71169189453124,9.662994384765625,0.00958251953125,0.1244964599609375
1702338830731752000,136.810751953125,9.63665771484375,0.0335235595703125,0.1125335693359375
1702338830830873000,136.909873046875,9.66778564453125,0.0502777099609375,0.100555419921875
1702338830929994200,137.008994140625,9.634262084960938,0.02154541015625,0.1556243896484375
1702338831028840700,137.1078408203125,9.679763793945312,0.026336669921875,0.143646240234375
1702338831129396000,137.20839599609374,9.670181274414062,0.004791259765625,0.1244964599609375
1702338831227266000,137.30626611328125,9.65582275390625,0.0023956298828125,0.1292877197265625
1702338831326356500,137.4053564453125,9.66778564453125,0.0239410400390625,0.11492919921875
1702338831425447200,137.504447265625,9.6893310546875,0.0119781494140625,0.1173095703125
1702338831524598800,137.60359887695313,9.674972534179688,0.0191497802734375,0.122100830078125
1702338831623964000,137.7029638671875,9.686935424804688,0.035919189453125,0.122100830078125
1702338831722230500,137.80123046875,9.631866455078125,0.0239410400390625,0.1053466796875
1702338831821321200,137.9003212890625,9.653427124023438,0.0406951904296875,0.1029510498046875
1702338831920716800,137.999716796875,9.672576904296875,0.0406951904296875,0.1029510498046875
1702338832019960000,138.0989599609375,9.6773681640625,0.00958251953125,0.1292877197265625
1702338832119081200,138.19808129882813,9.62469482421875,0.0502777099609375,0.11492919921875
1702338832217836000,138.2968359375,9.679763793945312,0.00958251953125,0.143646240234375
1702338832316835000,138.3958349609375,9.651031494140625,0.0119781494140625,0.174774169921875
1702338832416261400,138.49526147460938,9.670181274414062,0.0119781494140625,0.122100830078125
1702338832515443500,138.594443359375,9.646240234375,-0.0119781494140625,0.1460418701171875
1702338832614564600,138.69356469726563,9.66778564453125,0.0191497802734375,0.143646240234375
1702338832713227800,138.79222778320312,9.65582275390625,0.0335235595703125,0.12689208984375
1702338832813661200,138.8926611328125,9.646240234375,0.0814056396484375,0.1053466796875
1702338832911409000,138.99040893554687,9.651031494140625,-0.004791259765625,0.122100830078125
1702338833010530000,139.08953002929687,9.69891357421875,0.057464599609375,0.1244964599609375
1702338833109620700,139.18862084960938,9.660598754882812,-0.0023956298828125,0.143646240234375
1702338833208955400,139.28795532226562,9.600753784179688,0.06463623046875,0.110137939453125
1702338833308076500,139.38707666015625,9.648635864257812,0.0502777099609375,0.1412506103515625
1702338833407197700,139.48619775390625,9.691726684570312,0.0287322998046875,0.1340789794921875
1702338833505983000,139.58498291015624,9.674972534179688,0.0311279296875,0.1077423095703125
1702338833605073700,139.68407373046875,9.691726684570312,0.05267333984375,0.131683349609375
1702338833704561000,139.78356079101562,9.651031494140625,-0.0023956298828125,0.143646240234375
1702338833803651300,139.8826513671875,9.71087646484375,0.0502777099609375,0.11492919921875
1702338833902803000,139.98180297851562,9.62469482421875,0.004791259765625,0.1556243896484375
1702338834001863200,140.08086328125,9.6773681640625,0.026336669921875,0.122100830078125
1702338834101258800,140.1802587890625,9.65582275390625,-0.0119781494140625,0.1173095703125
1702338834200074800,140.27907470703124,9.641448974609375,0.0071868896484375,0.1484375
1702338834299196000,140.37819580078124,9.643844604492188,0.05267333984375,0.162811279296875
1702338834398317000,140.47731713867188,9.674972534179688,-0.0119781494140625,0.153228759765625
1702338834497407500,140.57640747070312,9.686935424804688,0.0383148193359375,0.1460418701171875
1702338834596681200,140.67568115234374,9.662994384765625,0.062255859375,0.162811279296875
1702338834695558100,140.77455810546874,9.6773681640625,0.026336669921875,0.1053466796875
1702338834795045400,140.87404541015624,9.660598754882812,0.0071868896484375,0.1029510498046875
1702338834893800400,140.97280053710938,9.653427124023438,-0.0023956298828125,0.136474609375
1702338834992891000,141.07189086914062,9.646240234375,0.0430908203125,0.110137939453125
1702338835091981600,141.17098168945313,9.65582275390625,0.0071868896484375,0.1460418701171875
1702338835191285800,141.27028564453124,9.653427124023438,0.0287322998046875,0.1292877197265625
1702338835289796400,141.36879638671874,9.646240234375,0.0143585205078125,0.1388702392578125
1702338835389589000,141.46858911132813,9.672576904296875,0.0239410400390625,0.1244964599609375
1702338835488526800,141.56752685546874,9.679763793945312,0.0191497802734375,0.1197052001953125
1702338835587678500,141.66667846679687,9.622299194335938,0.02154541015625,0.131683349609375
1702338835686708000,141.7657080078125,9.686935424804688,0.0598602294921875,0.1388702392578125
1702338835786286800,141.86528686523437,9.662994384765625,0.0311279296875,0.136474609375
1702338835884950300,141.9639501953125,9.665390014648438,0.0311279296875,0.1388702392578125
1702338835984254500,142.06325439453124,9.639053344726562,0.0311279296875,0.1508331298828125
1702338836083467000,142.16246704101562,9.694122314453125,0.0335235595703125,0.1197052001953125
1702338836182130400,142.26113037109374,9.706100463867188,0.0383148193359375,0.1795654296875
1702338836281037800,142.36003784179687,9.658203125,0.0071868896484375,0.12689208984375
1702338836380494600,142.45949462890624,9.646240234375,0.0143585205078125,0.1652069091796875
1702338836479982000,142.55898217773438,9.653427124023438,0.0239410400390625,0.15802001953125
1702338836578737000,142.65773681640624,9.658203125,0.047882080078125,0.0670318603515625
1702338836677827600,142.75682763671875,9.63665771484375,0.0383148193359375,0.1292877197265625
1702338836776377000,142.85537719726562,9.662994384765625,0.026336669921875,0.1340789794921875
1702338836875864300,142.9548642578125,9.627090454101562,0.0383148193359375,0.1508331298828125
1702338836974985500,143.0539853515625,9.6773681640625,0.0191497802734375,0.162811279296875
1702338837074106400,143.1531064453125,9.660598754882812,0.0287322998046875,0.1077423095703125
1702338837172830700,143.25183081054686,9.6773681640625,0.0311279296875,0.1723785400390625
1702338837271921400,143.35092138671874,9.648635864257812,0.0335235595703125,0.153228759765625
1702338837371042600,143.45004248046874,9.660598754882812,0.0143585205078125,0.143646240234375
1702338837470591000,143.54959106445312,9.63665771484375,0.016754150390625,0.110137939453125
1702338837569681400,143.64868139648436,9.66778564453125,0.0383148193359375,0.18914794921875
1702338837668405800,143.74740576171874,9.643844604492188,-0.0119781494140625,0.11492919921875
1702338837768503600,143.84750366210938,9.701309204101562,0.0143585205078125,0.12689208984375
1702338837866648000,143.94564794921874,9.634262084960938,0.0023956298828125,0.1508331298828125
1702338837965769000,144.04476904296874,9.651031494140625,0.0454864501953125,0.1244964599609375
1702338838064859600,144.1438596191406,9.66778564453125,0.0311279296875,0.136474609375
1702338838164194300,144.2431943359375,9.646240234375,0.004791259765625,0.1197052001953125
1702338838263376400,144.34237646484374,9.694122314453125,0.0239410400390625,0.1125335693359375
1702338838362497500,144.44149755859374,9.629486083984375,0.0406951904296875,0.1484375
1702338838461740800,144.54074072265624,9.66778564453125,0.0550689697265625,0.174774169921875
1702338838560434700,144.6394345703125,9.670181274414062,0.0191497802734375,0.1484375
1702338838660044000,144.7390439453125,9.679763793945312,0.026336669921875,0.09576416015625
1702338838759104000,144.83810400390624,9.648635864257812,0.0119781494140625,0.1484375
1702338838858164000,144.9371640625,9.672576904296875,0.057464599609375,0.1388702392578125
1702338838957285000,145.03628515625,9.674972534179688,0.0430908203125,0.122100830078125
1702338839056101000,145.13510107421874,9.6773681640625,-0.026336669921875,0.0933685302734375
1702338839155954700,145.23495458984374,9.639053344726562,0.0071868896484375,0.12689208984375
1702338839254648600,145.33364868164062,9.694122314453125,0.0191497802734375,0.1029510498046875
1702338839353769500,145.43276953125,9.612716674804688,0,0.1556243896484375
1702338839452890600,145.531890625,9.670181274414062,0.02154541015625,0.16998291015625
1702338839552011800,145.63101171875,9.694122314453125,0.0311279296875,0.174774169921875
1702338839651133000,145.7301328125,9.63665771484375,0.026336669921875,0.11492919921875
1702338839750132000,145.82913208007812,9.641448974609375,0.02154541015625,0.1197052001953125
1702338839849375000,145.928375,9.63665771484375,0.0454864501953125,0.1292877197265625
1702338839948496100,146.02749609375,9.670181274414062,0.0335235595703125,0.162811279296875
1702338840047617300,146.1266171875,9.643844604492188,0.00958251953125,0.1340789794921875
1702338840146738400,146.22573852539062,9.651031494140625,0,0.12689208984375
1702338840246103600,146.325103515625,9.660598754882812,0.035919189453125,0.122100830078125
1702338840345316000,146.42431616210936,9.641448974609375,0.0335235595703125,0.1604156494140625
1702338840445108700,146.5241086425781,9.662994384765625,0.00958251953125,0.1484375
1702338840543405800,146.62240576171874,9.674972534179688,0.02154541015625,0.131683349609375
1702338840642496300,146.7214963378906,9.648635864257812,0.0239410400390625,0.1460418701171875
1702338840741861600,146.8208615722656,9.641448974609375,0.0454864501953125,0.1460418701171875
1702338840840708000,146.9197080078125,9.701309204101562,0.0454864501953125,0.0981597900390625
1702338840939768000,147.01876806640624,9.634262084960938,0.05267333984375,0.122100830078125
1702338841038889200,147.11788916015624,9.665390014648438,0.0287322998046875,0.110137939453125
1702338841137979600,147.2169797363281,9.653427124023438,0.0287322998046875,0.1388702392578125
1702338841238382600,147.31738256835936,9.674972534179688,0.035919189453125,0.1723785400390625
1702338841336191500,147.41519140625,9.672576904296875,0.0239410400390625,0.15802001953125
1702338841435282000,147.51428198242186,9.662994384765625,0.0383148193359375,0.1173095703125
1702338841534006300,147.61300634765624,9.622299194335938,0.00958251953125,0.1556243896484375
1702338841633524200,147.71252416992186,9.62469482421875,0.016754150390625,0.136474609375
1702338841732645400,147.81164526367186,9.651031494140625,0.0454864501953125,0.1675872802734375
1702338841831797000,147.910796875,9.63665771484375,0.0239410400390625,0.143646240234375
1702338841930857000,148.00985693359374,9.672576904296875,0.0071868896484375,0.12689208984375
1702338842029825500,148.1088254394531,9.622299194335938,0.02154541015625,0.1604156494140625
1702338842129068500,148.2080686035156,9.662994384765625,0.0143585205078125,0.143646240234375
1702338842228220200,148.30722021484374,9.634262084960938,0.026336669921875,0.1819610595703125
1702338842326822700,148.40582275390625,9.6893310546875,0.00958251953125,0.1340789794921875
1702338842426279400,148.50527954101562,9.651031494140625,0.0430908203125,0.12689208984375
1702338842525461500,148.60446142578124,9.672576904296875,0.0335235595703125,0.136474609375
1702338842624552000,148.7035520019531,9.701309204101562,0.0311279296875,0.1388702392578125
1702338842724253000,148.8032529296875,9.674972534179688,0.0311279296875,0.090972900390625
1702338842822336500,148.90133642578124,9.6773681640625,0.0287322998046875,0.1077423095703125
1702338842921457700,149.00045776367188,9.658203125,0.0383148193359375,0.1388702392578125
1702338843020548000,149.0995480957031,9.682159423828125,0.0502777099609375,0.12689208984375
1702338843119913500,149.19891357421875,9.646240234375,0.0143585205078125,0.1771697998046875
1702338843219004000,149.29800390625,9.665390014648438,0.0430908203125,0.1292877197265625
1702338843318094600,149.39709448242186,9.648635864257812,0.0406951904296875,0.1508331298828125
1702338843417276700,149.4962766113281,9.639053344726562,0.0406951904296875,0.1244964599609375
1702338843516001000,149.5950009765625,9.66778564453125,0.026336669921875,0.1340789794921875
1702338843615091500,149.69409155273436,9.631866455078125,0.035919189453125,0.136474609375
1702338843714579000,149.79357885742186,9.643844604492188,0.0550689697265625,0.1197052001953125
1702338843813700000,149.8927001953125,9.619903564453125,0.0335235595703125,0.1508331298828125
1702338843912790500,149.99179052734374,9.648635864257812,0.035919189453125,0.16998291015625
1702338844011942100,150.09094213867186,9.648635864257812,0.00958251953125,0.131683349609375
1702338844110819000,150.18981909179686,9.662994384765625,0.0023956298828125,0.1244964599609375
1702338844210092800,150.2890927734375,9.686935424804688,0.026336669921875,0.11492919921875
1702338844309214000,150.3882138671875,9.670181274414062,0.035919189453125,0.153228759765625
1702338844408304400,150.48730444335936,9.694122314453125,0.0502777099609375,0.1412506103515625
1702338844507395000,150.58639501953124,9.6773681640625,0.0502777099609375,0.122100830078125
1702338844606546700,150.68554663085936,9.643844604492188,0.0406951904296875,0.1556243896484375
1702338844705332000,150.78433203125,9.658203125,0.0406951904296875,0.1412506103515625
1702338844805399300,150.8843994140625,9.658203125,0.035919189453125,0.1340789794921875
1702338844903849000,150.9828488769531,9.65582275390625,0.0454864501953125,0.1460418701171875
1702338845002939400,151.081939453125,9.653427124023438,0.0430908203125,0.1244964599609375
1702338845102030000,151.18103002929686,9.684539794921875,0.0430908203125,0.1508331298828125
1702338845201303800,151.2803037109375,9.634262084960938,0.0502777099609375,0.1867523193359375
1702338845300150300,151.379150390625,9.63665771484375,0.0383148193359375,0.122100830078125
1702338845399881700,151.4788818359375,9.6773681640625,0.0335235595703125,0.1508331298828125
1702338845498514400,151.57751440429686,9.643844604492188,0.0454864501953125,0.15802001953125
1702338845597666000,151.676666015625,9.639053344726562,0.0454864501953125,0.1412506103515625
1702338845696756700,151.7757568359375,9.627090454101562,0.0406951904296875,0.1460418701171875
1702338845795816700,151.8748166503906,9.703704833984375,0.035919189453125,0.1244964599609375
1702338845894968300,151.97396826171874,9.619903564453125,0.057464599609375,0.131683349609375
1702338845993906200,152.07290625,9.631866455078125,0.057464599609375,0.1244964599609375
