time,seconds_elapsed,z,y,x
1702338651746588400,0.23858837890625,9.366000175476074,4.913000106811523,1.340000033378601
1702338651846692000,0.338692138671875,8.407999992370605,4.769000053405762,0.8330000042915344
1702338651946417000,0.4384169921875,11.425000190734863,5.1620001792907715,-0.6600000262260437
1702338652046423000,0.538423095703125,10.093999862670898,4.270999908447266,0.2290000021457672
1702338652146423600,0.638423583984375,8.149999618530273,5.36299991607666,1.1770000457763672
1702338652246612500,0.738612548828125,7.296999931335449,5.074999809265137,2.4030001163482666
1702338652346570200,0.8385703125,7.163000106811523,5.113999843597412,3.265000104904175
1702338652446588000,0.938587890625,6.942999839782715,4.883999824523926,2.5950000286102295
1702338652546468900,1.03846875,8.121000289916992,5.478000164031982,3.0350000858306885
1702338652650964500,1.142964599609375,7.671000003814697,3.494999885559082,3.121999979019165
1702338652746600200,1.23860009765625,7.355000019073486,6.396999835968018,3.8399999141693115
1702338652846806500,1.338806640625,7.853000164031982,4.691999912261963,5.304999828338623
1702338652946409500,1.438409423828125,11.300999641418457,4.826000213623047,3.8299999237060547
1702338653046923500,1.538923583984375,7.890999794006348,5.553999900817871,4.548999786376953
1702338653146647000,1.63864697265625,7.834000110626221,4.940999984741211,3.246000051498413
1702338653246777900,1.73877783203125,7.0289998054504395,5.966000080108643,4.002999782562256
1702338653346630000,1.8386298828125,8.982999801635742,9.529000282287598,3.802000045776367
1702338653448768000,1.94076806640625,7.747000217437744,5.229000091552734,3.2269999980926514
1702338653549733600,2.041733642578125,8.675999641418457,6.5980000495910645,3.121999979019165
1702338653646395100,2.13839501953125,8.753000259399414,4.423999786376953,2.9679999351501465
1702338653746584000,2.238583984375,8.944999694824219,4.702000141143799,2.3269999027252197
1702338653846664700,2.338664794921875,8.916000366210938,5.007999897003174,2.125999927520752
1702338653956817000,2.44881689453125,8.111000061035156,6.2820000648498535,4.616000175476074
1702338654056578600,2.54857861328125,8.64799976348877,4.980000019073486,2.930000066757202
1702338654156476000,2.648475830078125,8.111000061035156,1.3020000457763672,1.2450000047683716
1702338654266434800,2.758434814453125,7.315999984741211,0.6890000104904175,-1.1390000581741333
1702338654366387200,2.85838720703125,9.960000038146973,-0.6990000009536743,2.2019999027252197
1702338654466410500,2.958410400390625,10.256999969482422,-1.0240000486373901,3.371000051498413
1702338654566438100,3.058438232421875,10.170000076293945,-0.42100000381469727,4.739999771118164
1702338654666426600,3.158426513671875,8.800999641418457,-0.28700000047683716,2.815000057220459
1702338654766455000,3.258455078125,9.701000213623047,-2.872999906539917,2.5850000381469727
1702338654866465500,3.358465576171875,9.835000038146973,-1.4459999799728394,1.6950000524520874
1702338654966446600,3.458446533203125,7.631999969482422,0.9860000014305115,0.3440000116825104
1702338655066450000,3.558449951171875,10.083999633789062,-0.2290000021457672,-0.20100000500679016
1702338655166442200,3.658442138671875,9.854000091552734,-0.19099999964237213,-0.1340000033378601
1702338655266529300,3.758529296875,9.883000373840332,-0.20100000500679016,-0.15299999713897705
1702338655367662800,3.859662841796875,9.87399959564209,-0.19099999964237213,-0.16200000047683716
1702338655467727400,3.959727294921875,9.87399959564209,-0.20999999344348907,-0.12399999797344208
1702338655567698400,4.059698486328125,9.883000373840332,-0.2199999988079071,-0.15299999713897705
1702338655667695600,4.159695556640625,9.87399959564209,-0.1809999942779541,-0.15299999713897705
1702338655767850500,4.2598505859375,9.87399959564209,-0.20100000500679016,-0.1340000033378601
1702338655876670700,4.368670654296875,9.87399959564209,-0.20100000500679016,-0.1340000033378601
1702338655977551400,4.46955126953125,9.86400032043457,-0.2199999988079071,-0.16200000047683716
1702338656077897000,4.56989697265625,9.87399959564209,-0.1809999942779541,-0.1340000033378601
1702338656177690400,4.6696904296875,9.883000373840332,-0.2199999988079071,-0.1720000058412552
1702338656277692200,4.769692138671875,9.854000091552734,-0.2290000021457672,-0.15299999713897705
1702338656397605600,4.889605712890625,9.87399959564209,-0.19099999964237213,-0.1340000033378601
1702338656497955600,4.98995556640625,9.883000373840332,-0.1809999942779541,-0.14300000667572021
1702338656597717800,5.0897177734375,9.892999649047852,-0.20100000500679016,-0.15299999713897705
1702338656697706000,5.1897060546875,9.883000373840332,-0.20999999344348907,-0.14300000667572021
1702338656799038200,5.2910380859375,9.86400032043457,-0.20100000500679016,-0.15299999713897705
1702338656897801700,5.3898017578125,9.883000373840332,-0.20999999344348907,-0.15299999713897705
1702338656997686800,5.489686767578125,9.883000373840332,-0.1809999942779541,-0.14300000667572021
1702338657097693000,5.58969287109375,9.86400032043457,-0.1720000058412552,-0.1340000033378601
1702338657197895400,5.6898955078125,9.87399959564209,-0.2199999988079071,-0.16200000047683716
1702338657297276000,5.78927587890625,9.86400032043457,-0.1809999942779541,-0.1809999942779541
1702338657397694700,5.88969482421875,9.86400032043457,-0.20999999344348907,-0.0949999988079071
1702338657497702400,5.989702392578125,9.87399959564209,-0.2290000021457672,-0.14300000667572021
1702338657597703200,6.089703125,9.86400032043457,-0.20999999344348907,-0.12399999797344208
1702338657697719600,6.189719482421875,9.883000373840332,-0.1809999942779541,-0.16200000047683716
1702338657799040500,6.29104052734375,9.883000373840332,-0.1809999942779541,-0.1340000033378601
1702338657897670000,6.389669921875,9.892999649047852,-0.20999999344348907,-0.14300000667572021
1702338657997693000,6.48969287109375,9.883000373840332,-0.20100000500679016,-0.15299999713897705
1702338658097791700,6.589791748046875,9.86400032043457,-0.16200000047683716,-0.12399999797344208
1702338658197696500,6.689696533203125,9.883000373840332,-0.19099999964237213,-0.12399999797344208
1702338658297687000,6.78968701171875,9.87399959564209,-0.20100000500679016,-0.1340000033378601
1702338658397672200,6.889672119140625,9.892999649047852,-0.15299999713897705,-0.15299999713897705
1702338658497725000,6.989724853515625,9.902000427246094,-0.2199999988079071,-0.11400000005960464
1702338658597679600,7.0896796875,9.883000373840332,-0.20100000500679016,-0.16200000047683716
1702338658700461300,7.19246142578125,9.86400032043457,-0.16200000047683716,-0.16200000047683716
1702338658797849300,7.289849365234375,9.883000373840332,-0.19099999964237213,-0.1720000058412552
1702338658897712600,7.389712646484375,9.845000267028809,-0.20999999344348907,-0.14300000667572021
1702338658997690400,7.4896904296875,9.883000373840332,-0.20100000500679016,-0.15299999713897705
1702338659097674500,7.589674560546875,9.87399959564209,-0.20100000500679016,-0.1720000058412552
1702338659197683500,7.689683349609375,9.883000373840332,-0.19099999964237213,-0.1340000033378601
1702338659296892400,7.788892333984375,9.883000373840332,-0.19099999964237213,-0.14300000667572021
1702338659397678000,7.889677978515625,9.87399959564209,-0.19099999964237213,-0.12399999797344208
1702338659497715200,7.989715087890625,9.892999649047852,-0.16200000047683716,-0.1720000058412552
1702338659597688800,8.089688720703125,9.87399959564209,-0.19099999964237213,-0.14300000667572021
1702338659697701000,8.189701171875,9.86400032043457,-0.19099999964237213,-0.14300000667572021
1702338659799027700,8.29102783203125,9.883000373840332,-0.1809999942779541,-0.14300000667572021
1702338659897691000,8.38969091796875,9.883000373840332,-0.19099999964237213,-0.16200000047683716
1702338659997690400,8.4896904296875,9.883000373840332,-0.16200000047683716,-0.11400000005960464
1702338660096720100,8.58872021484375,9.87399959564209,-0.1720000058412552,-0.1809999942779541
1702338660197684700,8.689684814453125,9.86400032043457,-0.20100000500679016,-0.15299999713897705
1702338660297682400,8.789682373046874,9.86400032043457,-0.2290000021457672,-0.15299999713897705
1702338660397689000,8.889689208984375,9.883000373840332,-0.1720000058412552,-0.16200000047683716
1702338660497725400,8.989725341796875,9.854000091552734,-0.19099999964237213,-0.15299999713897705
1702338660597718500,9.089718505859375,9.883000373840332,-0.20100000500679016,-0.14300000667572021
1702338660697692000,9.18969189453125,9.883000373840332,-0.19099999964237213,-0.16200000047683716
1702338660799025400,9.291025390625,9.87399959564209,-0.20999999344348907,-0.1809999942779541
1702338660897703400,9.389703369140625,9.86400032043457,-0.20100000500679016,-0.15299999713897705
1702338660996957200,9.488957275390625,9.845000267028809,-0.19099999964237213,-0.12399999797344208
1702338661107990000,9.599989990234375,9.87399959564209,-0.19099999964237213,-0.11400000005960464
1702338661207717400,9.69971728515625,9.892999649047852,-0.20999999344348907,-0.1340000033378601
1702338661307704000,9.7997041015625,9.87399959564209,-0.20999999344348907,-0.15299999713897705
1702338661407747300,9.899747314453125,9.87399959564209,-0.1720000058412552,-0.15299999713897705
1702338661507799800,9.9997998046875,9.892999649047852,-0.20999999344348907,-0.16200000047683716
1702338661607711200,10.099711181640625,9.87399959564209,-0.2199999988079071,-0.14300000667572021
1702338661707695400,10.1996953125,9.883000373840332,-0.2290000021457672,-0.11400000005960464
1702338661809522200,10.301522216796876,9.883000373840332,-0.19099999964237213,-0.1340000033378601
1702338661907703000,10.399703125,9.87399959564209,-0.19099999964237213,-0.14300000667572021
1702338662007722000,10.499721923828124,9.86400032043457,-0.20100000500679016,-0.14300000667572021
1702338662107708700,10.599708740234375,9.86400032043457,-0.20100000500679016,-0.11400000005960464
1702338662207706400,10.699706298828126,9.892999649047852,-0.20100000500679016,-0.15299999713897705
1702338662307706600,10.79970654296875,9.86400032043457,-0.20100000500679016,-0.15299999713897705
1702338662407687400,10.8996875,9.854000091552734,-0.19099999964237213,-0.14300000667572021
1702338662507974000,10.999973876953124,9.86400032043457,-0.20999999344348907,-0.15299999713897705
1702338662607713300,11.09971337890625,9.87399959564209,-0.20100000500679016,-0.1720000058412552
1702338662707711000,11.1997109375,9.87399959564209,-0.20100000500679016,-0.16200000047683716
1702338662807699200,11.29969921875,9.892999649047852,-0.1809999942779541,-0.16200000047683716
1702338662907724000,11.39972412109375,9.854000091552734,-0.2199999988079071,-0.1720000058412552
1702338663007749400,11.499749267578125,9.892999649047852,-0.1809999942779541,-0.16200000047683716
1702338663108182800,11.600182861328125,9.86400032043457,-0.20100000500679016,-0.16200000047683716
1702338663206716000,11.6987158203125,9.883000373840332,-0.19099999964237213,-0.16200000047683716
1702338663307728600,11.799728759765625,9.86400032043457,-0.20100000500679016,-0.15299999713897705
1702338663407712000,11.8997119140625,9.86400032043457,-0.1809999942779541,-0.15299999713897705
1702338663507702500,11.99970263671875,9.86400032043457,-0.19099999964237213,-0.11400000005960464
1702338663607703600,12.09970361328125,9.883000373840332,-0.20100000500679016,-0.19099999964237213
1702338663707680500,12.199680419921876,9.892999649047852,-0.2199999988079071,-0.1340000033378601
1702338663807788000,12.2997880859375,9.86400032043457,-0.2199999988079071,-0.14300000667572021
1702338663908053500,12.400053466796875,9.87399959564209,-0.20100000500679016,-0.14300000667572021
1702338664007722200,12.49972216796875,9.883000373840332,-0.1720000058412552,-0.1809999942779541
1702338664107740400,12.599740478515624,9.845000267028809,-0.19099999964237213,-0.14300000667572021
1702338664207717400,12.69971728515625,9.87399959564209,-0.20100000500679016,-0.16200000047683716
1702338664307706600,12.79970654296875,9.892999649047852,-0.20100000500679016,-0.15299999713897705
1702338664467538400,12.959538330078125,9.902000427246094,-0.1720000058412552,-0.1720000058412552
1702338664567706000,13.0597060546875,9.87399959564209,-0.19099999964237213,-0.1720000058412552
1702338664666592500,13.158592529296875,9.86400032043457,-0.19099999964237213,-0.16200000047683716
1702338664766830600,13.25883056640625,9.883000373840332,-0.1809999942779541,-0.19099999964237213
1702338664867686000,13.359685791015625,9.87399959564209,-0.20999999344348907,-0.1809999942779541
1702338664967730400,13.45973046875,9.86400032043457,-0.1720000058412552,-0.16200000047683716
1702338665067655400,13.559655517578125,9.883000373840332,-0.20999999344348907,-0.20100000500679016
1702338665167708200,13.659708251953125,9.854000091552734,-0.20100000500679016,-0.1720000058412552
1702338665267698200,13.7596982421875,9.883000373840332,-0.16200000047683716,-0.14300000667572021
1702338665367674600,13.859674560546875,9.87399959564209,-0.1809999942779541,-0.1340000033378601
1702338665467676000,13.959676025390625,9.902000427246094,-0.20100000500679016,-0.1720000058412552
1702338665566524700,14.058524658203124,9.892999649047852,-0.1809999942779541,-0.1340000033378601
1702338665666510000,14.158510009765624,9.87399959564209,-0.20100000500679016,-0.1340000033378601
1702338665766528800,14.25852880859375,9.892999649047852,-0.20999999344348907,-0.12399999797344208
1702338665867455000,14.359455078125,9.883000373840332,-0.19099999964237213,-0.14300000667572021
1702338665967722500,14.459722412109375,9.87399959564209,-0.2290000021457672,-0.19099999964237213
1702338666067693800,14.55969384765625,9.87399959564209,-0.1809999942779541,-0.14300000667572021
1702338666167703600,14.65970361328125,9.902000427246094,-0.15299999713897705,-0.16200000047683716
1702338666269172700,14.7611728515625,9.883000373840332,-0.20999999344348907,-0.12399999797344208
1702338666367673900,14.859673828125,9.902000427246094,-0.1809999942779541,-0.14300000667572021
1702338666467694300,14.9596943359375,9.892999649047852,-0.1809999942779541,-0.15299999713897705
1702338666567701800,15.05970166015625,9.892999649047852,-0.20100000500679016,-0.14300000667572021
1702338666667678200,15.15967822265625,9.854000091552734,-0.2199999988079071,-0.1720000058412552
1702338666766698500,15.258698486328125,9.883000373840332,-0.20999999344348907,-0.12399999797344208
1702338666867692300,15.3596923828125,9.892999649047852,-0.20999999344348907,-0.15299999713897705
1702338666967699200,15.45969921875,9.87399959564209,-0.20100000500679016,-0.1809999942779541
1702338667067711700,15.559711669921874,9.892999649047852,-0.19099999964237213,-0.16200000047683716
1702338667167701200,15.659701171875,9.854000091552734,-0.19099999964237213,-0.15299999713897705
1702338667267694800,15.75969482421875,9.86400032043457,-0.20999999344348907,-0.15299999713897705
1702338667367680000,15.859679931640626,9.911999702453613,-0.19099999964237213,-0.14300000667572021
1702338667467703600,15.95970361328125,9.902000427246094,-0.20100000500679016,-0.14300000667572021
1702338667567683800,16.059683837890624,9.892999649047852,-0.20999999344348907,-0.12399999797344208
1702338667666756900,16.1587568359375,9.883000373840332,-0.20999999344348907,-0.1340000033378601
1702338667766584000,16.258583984375,9.883000373840332,-0.1809999942779541,-0.1340000033378601
1702338667867714300,16.35971435546875,9.87399959564209,-0.15299999713897705,-0.12399999797344208
1702338667967714600,16.459714599609374,9.87399959564209,-0.2199999988079071,-0.16200000047683716
1702338668067703600,16.55970361328125,9.883000373840332,-0.20100000500679016,-0.1720000058412552
1702338668168054300,16.66005419921875,9.883000373840332,-0.2199999988079071,-0.11400000005960464
1702338668267695400,16.7596953125,9.86400032043457,-0.2199999988079071,-0.1720000058412552
1702338668367685400,16.859685302734373,9.883000373840332,-0.2290000021457672,-0.15299999713897705
1702338668467699200,16.95969921875,9.87399959564209,-0.1809999942779541,-0.1720000058412552
1702338668567977200,17.059977294921875,9.902000427246094,-0.1809999942779541,-0.1340000033378601
1702338668667710200,17.159710205078124,9.892999649047852,-0.20999999344348907,-0.1720000058412552
1702338668766612500,17.258612548828125,9.883000373840332,-0.1809999942779541,-0.14300000667572021
1702338668867693300,17.359693359375,9.86400032043457,-0.19099999964237213,-0.12399999797344208
1702338668967704800,17.459704833984375,9.87399959564209,-0.1809999942779541,-0.16200000047683716
1702338669067706000,17.5597060546875,9.883000373840332,-0.19099999964237213,-0.1720000058412552
1702338669167702800,17.659702880859374,9.883000373840332,-0.2199999988079071,-0.14300000667572021
1702338669267685000,17.75968505859375,9.892999649047852,-0.2199999988079071,-0.14300000667572021
1702338669367692500,17.859692626953127,9.87399959564209,-0.20100000500679016,-0.14300000667572021
1702338669467705300,17.959705322265624,9.87399959564209,-0.1720000058412552,-0.1720000058412552
1702338669567701000,18.059700927734376,9.86400032043457,-0.2290000021457672,-0.1809999942779541
1702338669667706400,18.159706298828127,9.883000373840332,-0.1809999942779541,-0.15299999713897705
1702338669768008200,18.26000830078125,9.883000373840332,-0.20100000500679016,-0.1809999942779541
1702338669870474800,18.362474853515625,9.883000373840332,-0.19099999964237213,-0.14300000667572021
1702338669967252200,18.459252197265624,9.86400032043457,-0.1809999942779541,-0.16200000047683716
1702338670067682800,18.559682861328124,9.892999649047852,-0.20100000500679016,-0.12399999797344208
1702338670167702800,18.659702880859374,9.86400032043457,-0.19099999964237213,-0.1720000058412552
1702338670267703300,18.759703369140624,9.854000091552734,-0.20100000500679016,-0.1340000033378601
1702338670367710500,18.85971044921875,9.854000091552734,-0.2290000021457672,-0.1720000058412552
1702338670467706000,18.9597060546875,9.883000373840332,-0.2199999988079071,-0.14300000667572021
1702338670566627300,19.05862744140625,9.87399959564209,-0.20999999344348907,-0.1809999942779541
1702338670667704800,19.159704833984375,9.87399959564209,-0.19099999964237213,-0.1720000058412552
1702338670766631200,19.258631103515626,9.892999649047852,-0.23899999260902405,-0.15299999713897705
1702338670867697200,19.359697265625,9.86400032043457,-0.19099999964237213,-0.1720000058412552
1702338670967736800,19.45973681640625,9.902000427246094,-0.19099999964237213,-0.1720000058412552
1702338671067710500,19.55971044921875,9.87399959564209,-0.20999999344348907,-0.20100000500679016
1702338671167682000,19.65968212890625,9.86400032043457,-0.20100000500679016,-0.1720000058412552
1702338671267682800,19.759682861328123,9.87399959564209,-0.2290000021457672,-0.1340000033378601
1702338671367676700,19.8596767578125,9.854000091552734,-0.19099999964237213,-0.11400000005960464
1702338671467714000,19.959714111328125,9.86400032043457,-0.20100000500679016,-0.1720000058412552
1702338671567683600,20.05968359375,9.892999649047852,-0.2199999988079071,-0.16200000047683716
1702338671667698200,20.1596982421875,9.87399959564209,-0.20100000500679016,-0.1340000033378601
1702338671775748600,20.26774853515625,9.86400032043457,-0.1809999942779541,-0.16200000047683716
1702338671967706000,20.4597060546875,9.883000373840332,-0.1809999942779541,-0.11400000005960464
1702338672067709400,20.55970947265625,9.87399959564209,-0.1809999942779541,-0.1340000033378601
1702338672167699700,20.65969970703125,9.87399959564209,-0.20100000500679016,-0.16200000047683716
1702338672267701200,20.759701171875,9.892999649047852,-0.19099999964237213,-0.12399999797344208
1702338672367673900,20.859673828125,9.87399959564209,-0.19099999964237213,-0.1809999942779541
1702338672467691300,20.959691162109376,9.883000373840332,-0.19099999964237213,-0.14300000667572021
1702338672567679700,21.0596796875,9.86400032043457,-0.2290000021457672,-0.1340000033378601
1702338672667715800,21.1597158203125,9.87399959564209,-0.2199999988079071,-0.1809999942779541
1702338672766599400,21.258599365234375,9.883000373840332,-0.19099999964237213,-0.1809999942779541
1702338672867688700,21.359688720703126,9.883000373840332,-0.20999999344348907,-0.16200000047683716
1702338672967703000,21.459703125,9.87399959564209,-0.1720000058412552,-0.16200000047683716
1702338673067700700,21.55970068359375,9.87399959564209,-0.20999999344348907,-0.1809999942779541
1702338673167851000,21.65985107421875,9.883000373840332,-0.1720000058412552,-0.1809999942779541
1702338673270119000,21.762118896484374,9.883000373840332,-0.20999999344348907,-0.16200000047683716
1702338673366583600,21.85858349609375,9.883000373840332,-0.20999999344348907,-0.1720000058412552
1702338673466577400,21.958577392578125,9.892999649047852,-0.23899999260902405,-0.15299999713897705
1702338673567755800,22.059755859375,9.883000373840332,-0.20100000500679016,-0.15299999713897705
1702338673667706000,22.1597060546875,9.883000373840332,-0.20100000500679016,-0.11400000005960464
1702338673767856000,22.259856201171875,9.87399959564209,-0.20999999344348907,-0.16200000047683716
1702338673866877400,22.35887744140625,9.86400032043457,-0.20100000500679016,-0.14300000667572021
1702338673967708200,22.459708251953124,9.86400032043457,-0.19099999964237213,-0.15299999713897705
1702338674067705900,22.559705810546873,9.883000373840332,-0.2199999988079071,-0.15299999713897705
1702338674167669200,22.659669189453126,9.845000267028809,-0.23899999260902405,-0.16200000047683716
1702338674267702000,22.759701904296875,9.87399959564209,-0.19099999964237213,-0.14300000667572021
1702338674368016100,22.86001611328125,9.845000267028809,-0.1720000058412552,-0.1720000058412552
1702338674467693300,22.959693359375,9.87399959564209,-0.20999999344348907,-0.14300000667572021
1702338674567699200,23.05969921875,9.883000373840332,-0.20999999344348907,-0.1720000058412552
1702338674667754000,23.15975390625,9.86400032043457,-0.2199999988079071,-0.15299999713897705
1702338674768099600,23.260099609375,9.883000373840332,-0.20100000500679016,-0.16200000047683716
1702338674868131800,23.3601318359375,9.87399959564209,-0.20999999344348907,-0.15299999713897705
1702338674966551600,23.458551513671875,9.883000373840332,-0.1809999942779541,-0.14300000667572021
1702338675067644000,23.559643798828127,9.87399959564209,-0.1809999942779541,-0.19099999964237213
1702338675167686700,23.659686767578126,9.883000373840332,-0.20100000500679016,-0.1720000058412552
1702338675267738400,23.75973828125,9.883000373840332,-0.20999999344348907,-0.1809999942779541
1702338675367764500,23.859764404296875,9.87399959564209,-0.20999999344348907,-0.19099999964237213
1702338675467680300,23.95968017578125,9.86400032043457,-0.1720000058412552,-0.16200000047683716
1702338675567707100,24.05970703125,9.854000091552734,-0.2199999988079071,-0.16200000047683716
1702338675667666400,24.15966650390625,9.86400032043457,-0.23899999260902405,-0.16200000047683716
1702338675767286800,24.259286865234376,9.854000091552734,-0.20999999344348907,-0.1809999942779541
1702338675867904300,24.359904296875,9.86400032043457,-0.20100000500679016,-0.16200000047683716
1702338675967748400,24.459748291015625,9.902000427246094,-0.1809999942779541,-0.19099999964237213
1702338676067694800,24.55969482421875,9.87399959564209,-0.2199999988079071,-0.1809999942779541
1702338676167691500,24.65969140625,9.883000373840332,-0.20999999344348907,-0.20999999344348907
1702338676267695400,24.7596953125,9.892999649047852,-0.20100000500679016,-0.16200000047683716
1702338676367711000,24.8597109375,9.902000427246094,-0.20999999344348907,-0.16200000047683716
1702338676467701500,24.959701416015626,9.86400032043457,-0.1809999942779541,-0.1720000058412552
1702338676567702300,25.059702392578124,9.911999702453613,-0.2290000021457672,-0.20100000500679016
1702338676667701000,25.159700927734374,9.883000373840332,-0.2199999988079071,-0.19099999964237213
1702338676767968800,25.25996875,9.845000267028809,-0.2290000021457672,-0.19099999964237213
1702338676867735000,25.359735107421876,9.87399959564209,-0.19099999964237213,-0.1809999942779541
1702338676967696400,25.4596962890625,9.87399959564209,-0.1809999942779541,-0.1720000058412552
1702338677067710700,25.559710693359374,9.86400032043457,-0.20100000500679016,-0.15299999713897705
1702338677166618400,25.658618408203125,9.883000373840332,-0.20100000500679016,-0.14300000667572021
1702338677267676400,25.759676513671874,9.920999526977539,-0.19099999964237213,-0.15299999713897705
1702338677367685000,25.85968505859375,9.86400032043457,-0.20100000500679016,-0.16200000047683716
1702338677466551600,25.958551513671875,9.87399959564209,-0.16200000047683716,-0.1720000058412552
1702338677566544000,26.0585439453125,9.87399959564209,-0.20999999344348907,-0.15299999713897705
1702338677667539200,26.159539306640625,9.883000373840332,-0.20999999344348907,-0.15299999713897705
1702338677766721300,26.25872119140625,9.902000427246094,-0.2199999988079071,-0.11400000005960464
1702338677868440000,26.360440185546874,9.883000373840332,-0.19099999964237213,-0.15299999713897705
1702338677967704300,26.459704345703123,9.86400032043457,-0.20999999344348907,-0.15299999713897705
1702338678067668500,26.55966845703125,9.892999649047852,-0.2199999988079071,-0.16200000047683716
1702338678167052000,26.659052001953125,9.892999649047852,-0.19099999964237213,-0.1720000058412552
1702338678267792100,26.759792236328124,9.892999649047852,-0.2290000021457672,-0.1720000058412552
1702338678367699500,26.859699462890624,9.892999649047852,-0.2199999988079071,-0.16200000047683716
1702338678466570200,26.9585703125,9.86400032043457,-0.20999999344348907,-0.14300000667572021
1702338678567709000,27.059708984375,9.270000457763672,-0.16200000047683716,-0.07599999755620956
1702338678667708400,27.15970849609375,8.762999534606934,-0.20999999344348907,-0.02800000086426735
1702338678767818500,27.259818603515626,9.86400032043457,-0.1809999942779541,-0.1340000033378601
1702338678872700700,27.36470068359375,10.151000022888184,-0.2199999988079071,-0.16200000047683716
1702338678970515700,27.462515625,9.5,-0.19099999964237213,-0.03799999877810478
1702338679067707600,27.559707763671874,8.159000396728516,-0.20100000500679016,0.03799999877810478
1702338679167919900,27.659919921875,9.845000267028809,-0.1340000033378601,-0.1720000058412552
1702338679267818000,27.75981787109375,9.786999702453613,-0.1809999942779541,-0.16200000047683716
1702338679367680500,27.859680419921876,9.86400032043457,-0.20999999344348907,-0.16200000047683716
1702338679467697000,27.95969677734375,9.892999649047852,-0.19099999964237213,-0.1809999942779541
1702338679567705600,28.05970556640625,9.892999649047852,-0.16200000047683716,-0.16200000047683716
1702338679667707400,28.159707275390623,9.87399959564209,-0.20999999344348907,-0.1809999942779541
1702338679766666000,28.258666015625,9.845000267028809,-0.1720000058412552,-0.20100000500679016
1702338679869120000,28.3611201171875,9.883000373840332,-0.20100000500679016,-0.20100000500679016
1702338679967795000,28.459794921875,9.911999702453613,-0.1720000058412552,-0.20100000500679016
1702338680067706600,28.55970654296875,9.854000091552734,-0.20100000500679016,-0.1720000058412552
1702338680167704300,28.659704345703126,9.892999649047852,-0.1809999942779541,-0.1720000058412552
1702338680266600700,28.7586005859375,9.87399959564209,-0.1809999942779541,-0.14300000667572021
1702338680368180000,28.860179931640626,9.87399959564209,-0.1809999942779541,-0.1809999942779541
1702338680467694600,28.959694580078125,9.854000091552734,-0.19099999964237213,-0.1720000058412552
1702338680567721000,29.059720947265625,9.883000373840332,-0.16200000047683716,-0.19099999964237213
1702338680667700000,29.159699951171874,9.911999702453613,-0.20999999344348907,-0.1809999942779541
1702338680766604800,29.258604736328124,9.87399959564209,-0.2290000021457672,-0.1809999942779541
1702338680867711200,29.359711181640623,9.883000373840332,-0.20100000500679016,-0.20999999344348907
1702338680967699700,29.45969970703125,9.87399959564209,-0.20999999344348907,-0.19099999964237213
1702338681067692800,29.55969287109375,9.902000427246094,-0.2199999988079071,-0.19099999964237213
1702338681168175000,29.660175048828126,9.87399959564209,-0.20100000500679016,-0.16200000047683716
1702338681267707100,29.75970703125,9.86400032043457,-0.20100000500679016,-0.1720000058412552
1702338681367695400,29.8596953125,9.883000373840332,-0.20100000500679016,-0.1809999942779541
1702338681467707400,29.959707275390624,9.86400032043457,-0.1809999942779541,-0.19099999964237213
1702338681567735800,30.05973583984375,9.883000373840332,-0.20100000500679016,-0.16200000047683716
1702338681667686100,30.15968603515625,9.902000427246094,-0.20999999344348907,-0.1809999942779541
1702338681766595800,30.258595947265626,9.87399959564209,-0.19099999964237213,-0.15299999713897705
1702338681877046300,30.36904638671875,9.892999649047852,-0.20100000500679016,-0.1809999942779541
1702338681977704700,30.46970458984375,9.902000427246094,-0.1809999942779541,-0.1720000058412552
1702338682077815800,30.56981591796875,9.86400032043457,-0.1809999942779541,-0.1720000058412552
1702338682177683500,30.669683349609375,9.883000373840332,-0.1720000058412552,-0.15299999713897705
1702338682277713000,30.769712890625,9.845000267028809,-0.1809999942779541,-0.16200000047683716
1702338682377715200,30.869715087890626,9.892999649047852,-0.19099999964237213,-0.20100000500679016
1702338682477815000,30.96981494140625,9.86400032043457,-0.16200000047683716,-0.20100000500679016
1702338682577718500,31.069718505859374,9.86400032043457,-0.20999999344348907,-0.1809999942779541
1702338682677696300,31.1696962890625,9.845000267028809,-0.19099999964237213,-0.15299999713897705
1702338682779008500,31.271008544921877,9.86400032043457,-0.19099999964237213,-0.19099999964237213
1702338682877813800,31.369813720703124,9.883000373840332,-0.20999999344348907,-0.16200000047683716
1702338682977715200,31.469715087890624,9.892999649047852,-0.19099999964237213,-0.14300000667572021
1702338683079012000,31.57101220703125,9.87399959564209,-0.23899999260902405,-0.15299999713897705
1702338683177747200,31.669747314453126,9.87399959564209,-0.1720000058412552,-0.1809999942779541
1702338683278037500,31.77003759765625,9.87399959564209,-0.20999999344348907,-0.16200000047683716
1702338683377703400,31.869703369140623,9.902000427246094,-0.20100000500679016,-0.15299999713897705
1702338683477697300,31.969697265625,9.883000373840332,-0.19099999964237213,-0.1720000058412552
1702338683577737200,32.0697373046875,9.883000373840332,-0.2199999988079071,-0.1809999942779541
1702338683676734000,32.16873388671875,9.892999649047852,-0.20100000500679016,-0.20100000500679016
1702338683777849300,32.26984936523438,9.86400032043457,-0.1809999942779541,-0.1809999942779541
1702338683880541200,32.372541259765626,9.87399959564209,-0.20100000500679016,-0.1809999942779541
1702338683977716000,32.469716064453124,9.883000373840332,-0.20999999344348907,-0.19099999964237213
1702338684077814500,32.569814453125,9.892999649047852,-0.2290000021457672,-0.15299999713897705
1702338684177692400,32.6696923828125,9.86400032043457,-0.20999999344348907,-0.1809999942779541
1702338684277727700,32.76972778320312,9.854000091552734,-0.2199999988079071,-0.20100000500679016
1702338684377717500,32.86971752929688,9.835000038146973,-0.20999999344348907,-0.1809999942779541
1702338684477838300,32.96983837890625,9.86400032043457,-0.19099999964237213,-0.1720000058412552
1702338684577776400,33.0697763671875,9.87399959564209,-0.20100000500679016,-0.1720000058412552
1702338684677703700,33.16970361328125,9.883000373840332,-0.20100000500679016,-0.1809999942779541
1702338684777984800,33.26998486328125,9.87399959564209,-0.19099999964237213,-0.15299999713897705
1702338684879477000,33.37147705078125,9.86400032043457,-0.1809999942779541,-0.19099999964237213
1702338684988547800,33.4805478515625,9.87399959564209,-0.20100000500679016,-0.19099999964237213
1702338685087689200,33.57968920898438,9.845000267028809,-0.1809999942779541,-0.20999999344348907
1702338685187698400,33.67969848632813,9.854000091552734,-0.2199999988079071,-0.1809999942779541
1702338685288393200,33.78039331054688,9.854000091552734,-0.1720000058412552,-0.1720000058412552
1702338685392280800,33.88428076171875,9.87399959564209,-0.2199999988079071,-0.1720000058412552
1702338685487722000,33.97972192382812,9.86400032043457,-0.1720000058412552,-0.1809999942779541
1702338685586753300,34.078753173828126,9.883000373840332,-0.20100000500679016,-0.16200000047683716
1702338685687688200,34.179688232421874,9.86400032043457,-0.1809999942779541,-0.19099999964237213
1702338685788981800,34.28098168945313,9.87399959564209,-0.1720000058412552,-0.15299999713897705
1702338685887701000,34.379700927734376,9.86400032043457,-0.19099999964237213,-0.1809999942779541
1702338685987704000,34.4797041015625,9.86400032043457,-0.1720000058412552,-0.2199999988079071
1702338686087740000,34.57973999023437,9.883000373840332,-0.1809999942779541,-0.1720000058412552
1702338686187723300,34.67972314453125,9.86400032043457,-0.19099999964237213,-0.19099999964237213
1702338686287706000,34.7797060546875,9.892999649047852,-0.20999999344348907,-0.19099999964237213
1702338686387703800,34.87970385742187,9.87399959564209,-0.2290000021457672,-0.15299999713897705
1702338686487675000,34.9796748046875,9.854000091552734,-0.20999999344348907,-0.1809999942779541
1702338686588037400,35.08003735351563,9.892999649047852,-0.19099999964237213,-0.19099999964237213
1702338686687707600,35.17970776367188,9.87399959564209,-0.20999999344348907,-0.20100000500679016
1702338686787715300,35.27971533203125,9.883000373840332,-0.2290000021457672,-0.1720000058412552
1702338686887713000,35.37971313476562,9.902000427246094,-0.16200000047683716,-0.1809999942779541
1702338686987697700,35.47969775390625,9.902000427246094,-0.1720000058412552,-0.19099999964237213
1702338687087699200,35.57969921875,9.87399959564209,-0.19099999964237213,-0.16200000047683716
1702338687187698400,35.67969848632813,9.86400032043457,-0.1809999942779541,-0.1809999942779541
1702338687287681800,35.77968188476562,9.87399959564209,-0.14300000667572021,-0.1720000058412552
1702338687387702800,35.87970288085938,9.892999649047852,-0.20100000500679016,-0.19099999964237213
1702338687487712500,35.97971240234375,9.86400032043457,-0.20100000500679016,-0.19099999964237213
1702338687587799600,36.079799560546874,9.883000373840332,-0.20999999344348907,-0.20999999344348907
1702338687687681300,36.179681396484376,9.854000091552734,-0.19099999964237213,-0.1809999942779541
1702338687787838500,36.27983837890625,9.86400032043457,-0.1720000058412552,-0.16200000047683716
1702338687886576600,36.37857666015625,9.883000373840332,-0.1720000058412552,-0.15299999713897705
1702338687987716900,36.479716796875,9.854000091552734,-0.19099999964237213,-0.1809999942779541
1702338688087787500,36.57978759765625,9.86400032043457,-0.19099999964237213,-0.19099999964237213
1702338688187717600,36.67971752929687,9.883000373840332,-0.20999999344348907,-0.19099999964237213
1702338688287705000,36.779705078125,9.87399959564209,-0.2199999988079071,-0.20100000500679016
1702338688387706400,36.879706298828125,9.86400032043457,-0.19099999964237213,-0.19099999964237213
1702338688487681300,36.979681396484374,9.854000091552734,-0.20999999344348907,-0.15299999713897705
1702338688587874800,37.07987475585937,9.902000427246094,-0.16200000047683716,-0.14300000667572021
1702338688686607400,37.178607421875,9.883000373840332,-0.1809999942779541,-0.15299999713897705
1702338688788620800,37.28062084960938,9.892999649047852,-0.2199999988079071,-0.1720000058412552
1702338688890489600,37.382489501953124,9.854000091552734,-0.1809999942779541,-0.16200000047683716
1702338688987907600,37.479907470703125,9.902000427246094,-0.19099999964237213,-0.16200000047683716
1702338689087709200,37.579709228515625,9.86400032043457,-0.2199999988079071,-0.2199999988079071
1702338689187699700,37.67969970703125,9.87399959564209,-0.2199999988079071,-0.16200000047683716
1702338689287694800,37.77969482421875,9.883000373840332,-0.20999999344348907,-0.15299999713897705
1702338689387697400,37.87969750976563,9.892999649047852,-0.1809999942779541,-0.1809999942779541
1702338689487685000,37.97968505859375,9.892999649047852,-0.20100000500679016,-0.20100000500679016
1702338689587833600,38.07983349609375,9.892999649047852,-0.2199999988079071,-0.19099999964237213
1702338689687694600,38.17969458007813,9.87399959564209,-0.19099999964237213,-0.1720000058412552
1702338689787625500,38.27962548828125,9.835000038146973,-0.1809999942779541,-0.19099999964237213
1702338689887732700,38.37973266601563,9.86400032043457,-0.2199999988079071,-0.20100000500679016
1702338689988924700,38.480924560546875,9.892999649047852,-0.1809999942779541,-0.1720000058412552
1702338690088202500,38.58020239257812,9.86400032043457,-0.20999999344348907,-0.1720000058412552
1702338690187745500,38.67974560546875,9.86400032043457,-0.14300000667572021,-0.20100000500679016
1702338690287720700,38.779720703125,9.87399959564209,-0.20100000500679016,-0.1809999942779541
1702338690388168200,38.880168212890624,9.892999649047852,-0.20999999344348907,-0.1720000058412552
1702338690487703600,38.97970361328125,9.883000373840332,-0.20999999344348907,-0.20100000500679016
1702338690587831000,39.0798310546875,9.854000091552734,-0.20100000500679016,-0.1809999942779541
1702338690687699200,39.17969921875,9.883000373840332,-0.1809999942779541,-0.1809999942779541
1702338690789029600,39.28102954101563,9.883000373840332,-0.20999999344348907,-0.2199999988079071
1702338690887698700,39.37969873046875,9.87399959564209,-0.20100000500679016,-0.19099999964237213
1702338690987688000,39.47968798828125,9.86400032043457,-0.1809999942779541,-0.2199999988079071
1702338691087700000,39.579699951171875,9.892999649047852,-0.2290000021457672,-0.20999999344348907
1702338691187700700,39.67970068359375,9.854000091552734,-0.20100000500679016,-0.19099999964237213
1702338691287687400,39.7796875,9.87399959564209,-0.1809999942779541,-0.2290000021457672
1702338691387696000,39.87969604492187,9.86400032043457,-0.20999999344348907,-0.20999999344348907
1702338691487940600,39.979940673828125,9.87399959564209,-0.20100000500679016,-0.19099999964237213
1702338691587843800,40.07984375,9.86400032043457,-0.20100000500679016,-0.1720000058412552
1702338691686544600,40.17854467773437,9.892999649047852,-0.20100000500679016,-0.1720000058412552
1702338691786538000,40.2785380859375,9.883000373840332,-0.1720000058412552,-0.1720000058412552
1702338691888721700,40.3807216796875,9.892999649047852,-0.20999999344348907,-0.19099999964237213
1702338691988326700,40.48032666015625,9.87399959564209,-0.16200000047683716,-0.1720000058412552
1702338692087750400,40.57975048828125,9.883000373840332,-0.20100000500679016,-0.1720000058412552
1702338692187984100,40.679984130859374,9.835000038146973,-0.20100000500679016,-0.1720000058412552
1702338692287729000,40.77972900390625,9.883000373840332,-0.19099999964237213,-0.15299999713897705
1702338692387710500,40.87971044921875,9.87399959564209,-0.20100000500679016,-0.20999999344348907
1702338692487708000,40.9797080078125,9.86400032043457,-0.20999999344348907,-0.15299999713897705
1702338692587843300,41.07984326171875,9.87399959564209,-0.1809999942779541,-0.1809999942779541
1702338692687695000,41.17969506835937,9.87399959564209,-0.1720000058412552,-0.16200000047683716
1702338692789028900,41.28102880859375,9.86400032043457,-0.20999999344348907,-0.1809999942779541
1702338692886646800,41.378646728515626,9.854000091552734,-0.20100000500679016,-0.1809999942779541
1702338692987705000,41.479705078125,9.86400032043457,-0.20100000500679016,-0.1809999942779541
1702338693088066800,41.58006689453125,9.87399959564209,-0.1720000058412552,-0.16200000047683716
1702338693189001200,41.68100122070312,9.883000373840332,-0.2199999988079071,-0.14300000667572021
1702338693287707000,41.779706787109376,9.892999649047852,-0.15299999713897705,-0.20100000500679016
1702338693427543600,41.91954345703125,9.854000091552734,-0.20100000500679016,-0.15299999713897705
1702338693527742000,42.01974194335938,9.87399959564209,-0.19099999964237213,-0.19099999964237213
1702338693626761000,42.11876098632813,9.87399959564209,-0.16200000047683716,-0.1720000058412552
1702338693730006500,42.22200659179688,9.86400032043457,-0.20999999344348907,-0.1809999942779541
1702338693827691300,42.31969116210937,9.845000267028809,-0.20100000500679016,-0.20999999344348907
1702338693929525000,42.42152490234375,9.86400032043457,-0.19099999964237213,-0.1809999942779541
1702338694027750700,42.519750732421876,9.892999649047852,-0.1809999942779541,-0.20999999344348907
1702338694128137500,42.62013745117188,9.87399959564209,-0.1720000058412552,-0.1720000058412552
1702338694227761000,42.719760986328126,9.892999649047852,-0.1720000058412552,-0.20999999344348907
1702338694327771000,42.81977099609375,9.883000373840332,-0.20100000500679016,-0.1809999942779541
1702338694427763700,42.919763671875,9.854000091552734,-0.20100000500679016,-0.2199999988079071
1702338694527744500,43.01974462890625,9.86400032043457,-0.20999999344348907,-0.1720000058412552
1702338694627743200,43.1197431640625,9.87399959564209,-0.1720000058412552,-0.1720000058412552
1702338694727748000,43.219748046875,9.87399959564209,-0.20100000500679016,-0.19099999964237213
1702338694827761200,43.31976123046875,9.883000373840332,-0.1809999942779541,-0.19099999964237213
1702338694927755800,43.419755859375,9.883000373840332,-0.1720000058412552,-0.19099999964237213
1702338695028048100,43.520048095703125,9.87399959564209,-0.19099999964237213,-0.16200000047683716
1702338695128413400,43.62041333007812,9.892999649047852,-0.20100000500679016,-0.19099999964237213
1702338695227747300,43.71974731445312,9.883000373840332,-0.19099999964237213,-0.20999999344348907
1702338695327748000,43.819748046875,9.845000267028809,-0.20100000500679016,-0.1809999942779541
1702338695427746300,43.91974633789062,9.883000373840332,-0.1809999942779541,-0.1720000058412552
1702338695527711000,44.0197109375,9.87399959564209,-0.19099999964237213,-0.19099999964237213
1702338695629058300,44.12105834960938,9.883000373840332,-0.19099999964237213,-0.20999999344348907
1702338695727750000,44.21975,9.86400032043457,-0.1720000058412552,-0.20100000500679016
1702338695828257300,44.32025732421875,9.883000373840332,-0.20100000500679016,-0.19099999964237213
1702338695927747600,44.41974755859375,9.87399959564209,-0.20999999344348907,-0.20100000500679016
1702338696027790000,44.5197900390625,9.892999649047852,-0.19099999964237213,-0.1720000058412552
1702338696127746000,44.61974609375,9.892999649047852,-0.20999999344348907,-0.20100000500679016
1702338696227789000,44.7197890625,9.883000373840332,-0.19099999964237213,-0.20100000500679016
1702338696327748400,44.81974829101563,9.87399959564209,-0.19099999964237213,-0.1809999942779541
1702338696427936300,44.91993627929688,9.845000267028809,-0.1720000058412552,-0.1720000058412552
1702338696527735300,45.0197353515625,9.87399959564209,-0.1809999942779541,-0.1720000058412552
1702338696627761200,45.11976123046875,9.892999649047852,-0.20100000500679016,-0.1809999942779541
1702338696727745800,45.219745849609374,9.87399959564209,-0.1809999942779541,-0.1809999942779541
1702338696827847400,45.319847412109375,9.902000427246094,-0.19099999964237213,-0.1720000058412552
1702338696927755500,45.41975561523437,9.883000373840332,-0.19099999964237213,-0.1720000058412552
1702338697027767800,45.51976782226563,9.892999649047852,-0.19099999964237213,-0.15299999713897705
1702338697137813800,45.629813720703126,9.892999649047852,-0.20100000500679016,-0.19099999964237213
1702338697277693000,45.76969287109375,9.883000373840332,-0.20100000500679016,-0.1809999942779541
1702338697377699800,45.869699951171874,9.883000373840332,-0.16200000047683716,-0.16200000047683716
1702338697477902600,45.96990258789062,9.883000373840332,-0.1809999942779541,-0.16200000047683716
1702338697577711600,46.06971166992187,9.854000091552734,-0.1720000058412552,-0.20100000500679016
1702338697677806800,46.16980688476563,9.883000373840332,-0.20999999344348907,-0.19099999964237213
1702338697778046200,46.270046142578124,9.854000091552734,-0.20999999344348907,-0.1720000058412552
1702338697877802800,46.369802734375,9.854000091552734,-0.23899999260902405,-0.19099999964237213
1702338697977731600,46.46973168945313,9.87399959564209,-0.20100000500679016,-0.1720000058412552
1702338698077683700,46.56968359375,9.86400032043457,-0.19099999964237213,-0.19099999964237213
1702338698177675300,46.66967529296875,9.892999649047852,-0.2290000021457672,-0.19099999964237213
1702338698277697500,46.76969750976563,9.86400032043457,-0.1720000058412552,-0.16200000047683716
1702338698377718300,46.86971826171875,9.883000373840332,-0.20100000500679016,-0.20999999344348907
1702338698477853700,46.96985375976563,9.902000427246094,-0.20999999344348907,-0.1809999942779541
1702338698577723000,47.06972290039062,9.902000427246094,-0.20100000500679016,-0.16200000047683716
1702338698677677300,47.16967724609375,9.883000373840332,-0.1720000058412552,-0.1809999942779541
1702338698777936100,47.26993603515625,9.87399959564209,-0.20100000500679016,-0.1720000058412552
1702338698877791000,47.369791015625,9.854000091552734,-0.1720000058412552,-0.1809999942779541
1702338698981613300,47.47361328125,9.86400032043457,-0.1809999942779541,-0.1809999942779541
1702338699080515300,47.57251538085937,10.11299991607666,-0.1720000058412552,-0.2770000100135803
1702338699176546600,47.668546630859375,10.083999633789062,-0.14300000667572021,-0.3440000116825104
1702338699277845200,47.76984521484375,9.87399959564209,-0.1720000058412552,-0.20100000500679016
1702338699377704700,47.86970458984375,9.37600040435791,-0.15299999713897705,-0.10499999672174454
1702338699477704400,47.96970434570313,10.008000373840332,-0.1720000058412552,-0.20999999344348907
1702338699577748700,48.06974877929687,9.73900032043457,-0.16200000047683716,-0.257999986410141
1702338699677382000,48.1693818359375,9.930999755859375,-0.15299999713897705,-0.1720000058412552
1702338699777933300,48.269933349609374,9.902000427246094,-0.20100000500679016,-0.1809999942779541
1702338699877705000,48.369705078125,9.883000373840332,-0.19099999964237213,-0.20999999344348907
1702338699977696300,48.4696962890625,9.883000373840332,-0.20100000500679016,-0.1720000058412552
1702338700076565000,48.56856494140625,9.86400032043457,-0.1809999942779541,-0.19099999964237213
1702338700178041600,48.67004150390625,9.87399959564209,-0.2199999988079071,-0.19099999964237213
1702338700278946600,48.77094653320312,9.845000267028809,-0.1720000058412552,-0.20100000500679016
1702338700377706200,48.86970629882813,9.883000373840332,-0.19099999964237213,-0.1720000058412552
1702338700477822500,48.96982250976563,9.86400032043457,-0.1809999942779541,-0.1809999942779541
1702338700577755400,49.06975537109375,9.902000427246094,-0.2199999988079071,-0.20999999344348907
1702338700677985800,49.16998583984375,9.86400032043457,-0.1809999942779541,-0.19099999964237213
1702338700776728000,49.26872802734375,9.86400032043457,-0.2199999988079071,-0.20100000500679016
1702338700877126000,49.3691259765625,9.854000091552734,-0.1809999942779541,-0.20100000500679016
1702338700977682000,49.46968188476563,9.86400032043457,-0.19099999964237213,-0.2199999988079071
1702338701077698800,49.56969873046875,9.883000373840332,-0.19099999964237213,-0.19099999964237213
1702338701177734000,49.66973388671875,9.87399959564209,-0.19099999964237213,-0.19099999964237213
1702338701277809400,49.769809326171874,9.883000373840332,-0.1720000058412552,-0.20100000500679016
1702338701377702700,49.86970263671875,9.883000373840332,-0.20999999344348907,-0.20999999344348907
1702338701477709300,49.969709228515626,9.86400032043457,-0.19099999964237213,-0.1809999942779541
1702338701577729800,50.06972973632813,9.883000373840332,-0.16200000047683716,-0.19099999964237213
1702338701677833500,50.16983349609375,9.86400032043457,-0.19099999964237213,-0.2290000021457672
1702338701777940500,50.2699404296875,9.854000091552734,-0.1809999942779541,-0.1809999942779541
1702338701877693400,50.369693359375,9.883000373840332,-0.20100000500679016,-0.20100000500679016
1702338701977634300,50.46963427734375,9.854000091552734,-0.16200000047683716,-0.20100000500679016
1702338702077836300,50.569836181640625,9.883000373840332,-0.16200000047683716,-0.20100000500679016
1702338702177668000,50.66966821289063,9.87399959564209,-0.1809999942779541,-0.1809999942779541
1702338702277681700,50.769681640625,9.87399959564209,-0.16200000047683716,-0.20100000500679016
1702338702376622000,50.8686220703125,9.883000373840332,-0.1720000058412552,-0.19099999964237213
1702338702477844000,50.969843994140625,9.87399959564209,-0.1720000058412552,-0.20100000500679016
1702338702577698000,51.06969799804688,9.86400032043457,-0.16200000047683716,-0.1809999942779541
1702338702677698600,51.16969848632812,9.87399959564209,-0.20100000500679016,-0.2199999988079071
1702338702777938200,51.26993823242187,9.883000373840332,-0.16200000047683716,-0.19099999964237213
1702338702876662300,51.368662353515624,9.87399959564209,-0.19099999964237213,-0.1809999942779541
1702338702976515300,51.46851538085937,9.87399959564209,-0.15299999713897705,-0.1809999942779541
1702338703076630000,51.568630126953124,9.883000373840332,-0.20999999344348907,-0.1720000058412552
1702338703183782000,51.675781982421874,9.87399959564209,-0.20100000500679016,-0.19099999964237213
1702338703376575000,51.86857495117187,9.883000373840332,-0.1809999942779541,-0.16200000047683716
1702338703477708800,51.969708740234374,9.883000373840332,-0.1720000058412552,-0.1809999942779541
1702338703577936100,52.06993603515625,9.86400032043457,-0.19099999964237213,-0.1809999942779541
1702338703677823700,52.16982373046875,9.87399959564209,-0.20100000500679016,-0.19099999964237213
1702338703777945600,52.26994555664062,9.854000091552734,-0.16200000047683716,-0.1809999942779541
1702338703877671700,52.36967163085937,9.854000091552734,-0.1809999942779541,-0.1809999942779541
1702338703977975800,52.46997583007813,9.87399959564209,-0.16200000047683716,-0.1809999942779541
1702338704076737800,52.56873779296875,9.854000091552734,-0.19099999964237213,-0.15299999713897705
1702338704177699600,52.66969946289063,9.883000373840332,-0.20100000500679016,-0.1720000058412552
1702338704277708300,52.769708251953126,9.892999649047852,-0.19099999964237213,-0.1720000058412552
1702338704377720000,52.86971997070312,9.87399959564209,-0.1809999942779541,-0.1809999942779541
1702338704477791000,52.969791015625,9.883000373840332,-0.1809999942779541,-0.1809999942779541
1702338704577734000,53.06973388671875,9.87399959564209,-0.2199999988079071,-0.16200000047683716
1702338704677704200,53.1697041015625,9.87399959564209,-0.19099999964237213,-0.15299999713897705
1702338704776618200,53.2686181640625,9.86400032043457,-0.20100000500679016,-0.2199999988079071
1702338704877826600,53.36982666015625,9.892999649047852,-0.1809999942779541,-0.1809999942779541
1702338704977701000,53.469701171875,9.892999649047852,-0.19099999964237213,-0.1720000058412552
1702338705078201300,53.57020141601563,9.883000373840332,-0.20999999344348907,-0.1809999942779541
1702338705176552000,53.668552001953124,9.87399959564209,-0.1720000058412552,-0.1809999942779541
1702338705277814800,53.76981469726562,9.883000373840332,-0.19099999964237213,-0.19099999964237213
1702338705377718500,53.869718505859375,9.86400032043457,-0.16200000047683716,-0.19099999964237213
1702338705477687600,53.9696875,9.87399959564209,-0.20100000500679016,-0.20100000500679016
1702338705576670000,54.068669921875,9.86400032043457,-0.1720000058412552,-0.20100000500679016
1702338705677812000,54.16981201171875,9.892999649047852,-0.1720000058412552,-0.16200000047683716
1702338705779017000,54.27101684570312,9.87399959564209,-0.16200000047683716,-0.1720000058412552
1702338705877721600,54.3697216796875,9.854000091552734,-0.1720000058412552,-0.1809999942779541
1702338705977714000,54.4697138671875,9.86400032043457,-0.1720000058412552,-0.1720000058412552
1702338706077814800,54.56981469726563,9.883000373840332,-0.1809999942779541,-0.1809999942779541
1702338706177716700,54.669716796875,9.87399959564209,-0.1809999942779541,-0.1720000058412552
1702338706277695000,54.769695068359376,9.86400032043457,-0.19099999964237213,-0.1809999942779541
1702338706377696300,54.8696962890625,9.883000373840332,-0.19099999964237213,-0.20999999344348907
1702338706476669200,54.968669189453124,9.854000091552734,-0.1720000058412552,-0.20100000500679016
1702338706577790000,55.0697900390625,9.883000373840332,-0.1809999942779541,-0.19099999964237213
1702338706677721600,55.1697216796875,9.86400032043457,-0.15299999713897705,-0.1720000058412552
1702338706777939000,55.26993896484375,9.86400032043457,-0.16200000047683716,-0.19099999964237213
1702338706877829400,55.369829345703124,9.883000373840332,-0.20100000500679016,-0.19099999964237213
1702338706977702700,55.46970263671875,9.86400032043457,-0.1809999942779541,-0.20999999344348907
1702338707079011300,55.57101123046875,9.86400032043457,-0.15299999713897705,-0.2290000021457672
1702338707177709800,55.66970971679687,9.87399959564209,-0.19099999964237213,-0.20100000500679016
1702338707277809200,55.76980908203125,9.902000427246094,-0.20100000500679016,-0.1809999942779541
1702338707377698300,55.8696982421875,9.87399959564209,-0.2290000021457672,-0.20999999344348907
1702338707477697300,55.969697265625,9.854000091552734,-0.1809999942779541,-0.20100000500679016
1702338707577709300,56.06970922851563,9.892999649047852,-0.19099999964237213,-0.1809999942779541
1702338707676875000,56.168875,9.883000373840332,-0.1809999942779541,-0.20999999344348907
1702338707779020000,56.27102001953125,9.87399959564209,-0.19099999964237213,-0.1809999942779541
1702338707877707000,56.36970703125,9.86400032043457,-0.19099999964237213,-0.19099999964237213
1702338707977689900,56.46968994140625,9.86400032043457,-0.15299999713897705,-0.1809999942779541
1702338708076661200,56.5686611328125,9.86400032043457,-0.16200000047683716,-0.15299999713897705
1702338708177696300,56.6696962890625,9.902000427246094,-0.1809999942779541,-0.19099999964237213
1702338708277702700,56.76970263671875,9.87399959564209,-0.20999999344348907,-0.20100000500679016
1702338708377713000,56.869712890625,9.87399959564209,-0.1720000058412552,-0.1809999942779541
1702338708477866800,56.96986669921875,9.87399959564209,-0.1809999942779541,-0.19099999964237213
1702338708577714200,57.069714111328125,9.86400032043457,-0.1720000058412552,-0.19099999964237213
1702338708676747300,57.16874731445313,9.87399959564209,-0.1809999942779541,-0.16200000047683716
1702338708777935400,57.269935302734375,9.854000091552734,-0.16200000047683716,-0.20100000500679016
1702338708877819600,57.36981958007812,9.854000091552734,-0.20100000500679016,-0.20100000500679016
1702338708976626200,57.46862622070312,9.883000373840332,-0.20999999344348907,-0.19099999964237213
1702338709077660400,57.569660400390624,9.87399959564209,-0.20999999344348907,-0.19099999964237213
1702338709177700400,57.66970043945312,9.86400032043457,-0.20100000500679016,-0.19099999964237213
1702338709277800200,57.76980029296875,9.854000091552734,-0.19099999964237213,-0.1809999942779541
1702338709377697800,57.86969775390625,9.87399959564209,-0.20999999344348907,-0.19099999964237213
1702338709477705500,57.96970556640625,9.854000091552734,-0.16200000047683716,-0.19099999964237213
1702338709577698000,58.06969799804688,9.845000267028809,-0.19099999964237213,-0.2199999988079071
1702338709677797000,58.169797119140625,9.883000373840332,-0.19099999964237213,-0.1809999942779541
1702338709777728800,58.26972875976563,9.86400032043457,-0.1720000058412552,-0.1720000058412552
1702338709877705200,58.369705322265624,9.892999649047852,-0.1720000058412552,-0.1720000058412552
1702338709977704400,58.46970434570313,9.883000373840332,-0.19099999964237213,-0.1809999942779541
1702338710077665300,58.56966528320312,9.854000091552734,-0.1809999942779541,-0.20999999344348907
1702338710176933000,58.66893310546875,9.87399959564209,-0.1720000058412552,-0.20999999344348907
1702338710277709000,58.769708984375,9.86400032043457,-0.1720000058412552,-0.2199999988079071
1702338710377688800,58.869688720703124,9.87399959564209,-0.20100000500679016,-0.20999999344348907
1702338710477823700,58.96982373046875,9.87399959564209,-0.1720000058412552,-0.2199999988079071
1702338710577720800,59.06972094726562,9.883000373840332,-0.16200000047683716,-0.1809999942779541
1702338710677718300,59.16971826171875,9.86400032043457,-0.15299999713897705,-0.1809999942779541
1702338710776673000,59.26867309570312,9.854000091552734,-0.1809999942779541,-0.20999999344348907
1702338710877817000,59.36981713867188,9.87399959564209,-0.1720000058412552,-0.19099999964237213
1702338710977702400,59.46970239257813,9.883000373840332,-0.20100000500679016,-0.1809999942779541
1702338711077710600,59.569710693359376,9.854000091552734,-0.20100000500679016,-0.20100000500679016
1702338711177681700,59.669681640625,9.86400032043457,-0.20100000500679016,-0.19099999964237213
1702338711277804000,59.769803955078125,9.87399959564209,-0.1720000058412552,-0.1809999942779541
1702338711377673700,59.869673828125,9.883000373840332,-0.20100000500679016,-0.19099999964237213
1702338711477731600,59.96973168945313,9.87399959564209,-0.1809999942779541,-0.20100000500679016
1702338711577759000,60.06975903320313,9.883000373840332,-0.20100000500679016,-0.1809999942779541
1702338711677821000,60.169821044921875,9.86400032043457,-0.19099999964237213,-0.2199999988079071
1702338711777935600,60.269935546875,9.87399959564209,-0.20100000500679016,-0.1720000058412552
1702338711877696000,60.369696044921874,9.883000373840332,-0.15299999713897705,-0.20100000500679016
1702338711977720300,60.46972021484375,9.883000373840332,-0.1720000058412552,-0.20100000500679016
1702338712077814300,60.569814208984376,9.883000373840332,-0.19099999964237213,-0.19099999964237213
1702338712177686800,60.66968676757813,9.883000373840332,-0.19099999964237213,-0.19099999964237213
1702338712277713000,60.769712890625,9.902000427246094,-0.2290000021457672,-0.2290000021457672
1702338712377726700,60.86972680664063,9.883000373840332,-0.1809999942779541,-0.24899999797344208
1702338712477813000,60.96981298828125,9.87399959564209,-0.1809999942779541,-0.20100000500679016
1702338712577903900,61.06990380859375,9.883000373840332,-0.1720000058412552,-0.20100000500679016
1702338712677708500,61.16970849609375,9.883000373840332,-0.1720000058412552,-0.20999999344348907
1702338712779012600,61.2710126953125,9.883000373840332,-0.1720000058412552,-0.19099999964237213
1702338712878119200,61.370119140625,9.883000373840332,-0.1809999942779541,-0.2290000021457672
1702338712977687000,61.46968701171875,9.86400032043457,-0.1720000058412552,-0.2290000021457672
1702338713077688300,61.569688232421875,9.883000373840332,-0.19099999964237213,-0.1809999942779541
1702338713177767200,61.66976708984375,9.86400032043457,-0.1809999942779541,-0.23899999260902405
1702338713277823000,61.76982299804688,9.87399959564209,-0.1720000058412552,-0.20100000500679016
1702338713376607700,61.86860766601563,9.87399959564209,-0.19099999964237213,-0.20100000500679016
1702338713477684200,61.96968432617187,9.86400032043457,-0.1809999942779541,-0.1720000058412552
1702338713576540400,62.06854052734375,9.87399959564209,-0.20100000500679016,-0.19099999964237213
1702338713676647400,62.1686474609375,9.883000373840332,-0.19099999964237213,-0.1809999942779541
1702338713784388000,62.27638818359375,9.86400032043457,-0.16200000047683716,-0.19099999964237213
1702338713978244600,62.47024462890625,9.902000427246094,-0.16200000047683716,-0.20100000500679016
1702338714076759300,62.56875927734375,9.87399959564209,-0.19099999964237213,-0.1809999942779541
1702338714180488000,62.672488037109375,9.86400032043457,-0.19099999964237213,-0.16200000047683716
1702338714277713000,62.769712890625,9.87399959564209,-0.19099999964237213,-0.2199999988079071
1702338714377691600,62.86969165039063,9.87399959564209,-0.19099999964237213,-0.1720000058412552
1702338714477838000,62.969838134765624,9.892999649047852,-0.1720000058412552,-0.16200000047683716
1702338714582886100,63.07488623046875,9.883000373840332,-0.1720000058412552,-0.1720000058412552
1702338714777941500,63.26994140625,9.87399959564209,-0.19099999964237213,-0.1809999942779541
1702338714877802000,63.369802001953126,9.883000373840332,-0.20999999344348907,-0.19099999964237213
1702338714977730300,63.46973022460938,9.892999649047852,-0.20100000500679016,-0.1809999942779541
1702338715077693400,63.569693359375,9.883000373840332,-0.20999999344348907,-0.16200000047683716
1702338715178845200,63.67084521484375,9.854000091552734,-0.1809999942779541,-0.1809999942779541
1702338715277950200,63.7699501953125,9.87399959564209,-0.20999999344348907,-0.1809999942779541
1702338715377757700,63.8697578125,9.883000373840332,-0.1809999942779541,-0.19099999964237213
1702338715477690400,63.9696904296875,9.87399959564209,-0.1720000058412552,-0.19099999964237213
1702338715577733000,64.06973315429687,9.86400032043457,-0.12399999797344208,-0.19099999964237213
1702338715677818000,64.16981811523438,9.86400032043457,-0.1809999942779541,-0.19099999964237213
1702338715777926000,64.26992578125,9.883000373840332,-0.20999999344348907,-0.2199999988079071
1702338715877694500,64.36969458007812,9.87399959564209,-0.19099999964237213,-0.1809999942779541
1702338715976659500,64.46865942382813,9.86400032043457,-0.20999999344348907,-0.20100000500679016
1702338716077840600,64.56984057617187,9.86400032043457,-0.1720000058412552,-0.20100000500679016
1702338716177710000,64.6697099609375,9.86400032043457,-0.19099999964237213,-0.20100000500679016
1702338716277710000,64.7697099609375,9.87399959564209,-0.20100000500679016,-0.20100000500679016
1702338716377697500,64.86969750976563,9.87399959564209,-0.19099999964237213,-0.20999999344348907
1702338716477867000,64.96986694335938,9.845000267028809,-0.19099999964237213,-0.20999999344348907
1702338716577723000,65.06972290039063,9.87399959564209,-0.1809999942779541,-0.20100000500679016
1702338716677823700,65.16982373046875,9.87399959564209,-0.1720000058412552,-0.19099999964237213
1702338716779021300,65.27102124023438,9.883000373840332,-0.1720000058412552,-0.20100000500679016
1702338716877815600,65.36981567382813,9.883000373840332,-0.20100000500679016,-0.2290000021457672
1702338716977681700,65.469681640625,9.87399959564209,-0.20100000500679016,-0.2199999988079071
1702338717077701400,65.56970141601562,9.883000373840332,-0.20100000500679016,-0.2199999988079071
1702338717176717800,65.6687177734375,9.883000373840332,-0.20999999344348907,-0.19099999964237213
1702338717277813000,65.76981298828125,9.892999649047852,-0.1809999942779541,-0.1809999942779541
1702338717378748000,65.87074780273437,9.892999649047852,-0.20100000500679016,-0.2199999988079071
1702338717477711600,65.96971166992188,9.87399959564209,-0.1809999942779541,-0.1809999942779541
1702338717577743400,66.06974340820312,9.86400032043457,-0.1809999942779541,-0.16200000047683716
1702338717677991700,66.16999169921876,9.883000373840332,-0.1809999942779541,-0.20100000500679016
1702338717779001300,66.27100146484375,9.902000427246094,-0.1809999942779541,-0.15299999713897705
1702338717877675500,66.36967553710937,9.854000091552734,-0.19099999964237213,-0.20100000500679016
1702338717977745400,66.46974536132812,9.87399959564209,-0.20999999344348907,-0.15299999713897705
1702338718078190300,66.5701904296875,9.86400032043457,-0.19099999964237213,-0.20100000500679016
1702338718177716700,66.669716796875,9.883000373840332,-0.1809999942779541,-0.1809999942779541
1702338718277697300,66.769697265625,9.892999649047852,-0.19099999964237213,-0.20100000500679016
1702338718377748000,66.869748046875,9.86400032043457,-0.20999999344348907,-0.1809999942779541
1702338718477759000,66.96975903320312,9.87399959564209,-0.19099999964237213,-0.1720000058412552
1702338718577746200,67.06974609375,9.845000267028809,-0.19099999964237213,-0.20999999344348907
1702338718677697000,67.16969702148438,9.902000427246094,-0.1809999942779541,-0.1809999942779541
1702338718778076000,67.27007592773438,9.883000373840332,-0.19099999964237213,-0.1720000058412552
1702338718877784800,67.36978491210938,9.86400032043457,-0.16200000047683716,-0.1720000058412552
1702338718977702000,67.46970190429687,9.86400032043457,-0.16200000047683716,-0.1809999942779541
1702338719077693700,67.56969360351563,9.883000373840332,-0.2199999988079071,-0.19099999964237213
1702338719177656000,67.66965600585938,9.854000091552734,-0.20100000500679016,-0.1809999942779541
1702338719277828600,67.76982861328125,9.87399959564209,-0.1720000058412552,-0.20999999344348907
1702338719377704200,67.8697041015625,9.87399959564209,-0.16200000047683716,-0.1720000058412552
1702338719477714400,67.96971435546875,9.86400032043457,-0.19099999964237213,-0.1809999942779541
1702338719577779200,68.069779296875,9.883000373840332,-0.19099999964237213,-0.1720000058412552
1702338719677849000,68.16984912109375,9.883000373840332,-0.1720000058412552,-0.1809999942779541
1702338719779004400,68.27100439453125,9.87399959564209,-0.1809999942779541,-0.2199999988079071
1702338719877700900,68.36970092773437,9.883000373840332,-0.1720000058412552,-0.2290000021457672
1702338719977683000,68.46968286132812,9.883000373840332,-0.1720000058412552,-0.16200000047683716
1702338720078059500,68.5700595703125,9.87399959564209,-0.20100000500679016,-0.1809999942779541
1702338720177970700,68.669970703125,9.87399959564209,-0.15299999713897705,-0.16200000047683716
1702338720277790200,68.76979028320312,9.87399959564209,-0.16200000047683716,-0.1720000058412552
1702338720377716000,68.86971606445313,9.87399959564209,-0.20999999344348907,-0.1720000058412552
1702338720477813000,68.96981298828125,9.87399959564209,-0.19099999964237213,-0.19099999964237213
1702338720577740800,69.06974072265625,9.87399959564209,-0.19099999964237213,-0.19099999964237213
1702338720677720300,69.16972021484375,9.87399959564209,-0.1720000058412552,-0.20100000500679016
1702338720777939700,69.26993969726563,9.87399959564209,-0.1809999942779541,-0.19099999964237213
1702338720877807900,69.36980786132813,9.86400032043457,-0.2290000021457672,-0.1809999942779541
1702338720977698000,69.46969799804687,9.87399959564209,-0.1720000058412552,-0.19099999964237213
1702338721077709000,69.569708984375,9.883000373840332,-0.1720000058412552,-0.19099999964237213
1702338721177686300,69.66968627929687,9.86400032043457,-0.16200000047683716,-0.20999999344348907
1702338721277792500,69.76979248046875,9.883000373840332,-0.20100000500679016,-0.20999999344348907
1702338721377701600,69.86970166015625,9.86400032043457,-0.1809999942779541,-0.19099999964237213
1702338721477703200,69.969703125,9.87399959564209,-0.20999999344348907,-0.1809999942779541
1702338721577747500,70.06974755859375,9.883000373840332,-0.1720000058412552,-0.1720000058412552
1702338721677805300,70.16980541992187,9.87399959564209,-0.1720000058412552,-0.16200000047683716
1702338721777947400,70.26994750976563,9.86400032043457,-0.19099999964237213,-0.20100000500679016
1702338721877683200,70.36968310546875,9.87399959564209,-0.2199999988079071,-0.1809999942779541
1702338721980928300,70.47292822265625,9.87399959564209,-0.20100000500679016,-0.20100000500679016
1702338722077812500,70.5698125,9.883000373840332,-0.1809999942779541,-0.20999999344348907
1702338722177702000,70.66970190429687,9.86400032043457,-0.20100000500679016,-0.20999999344348907
1702338722277674200,70.76967431640625,9.87399959564209,-0.19099999964237213,-0.1720000058412552
1702338722377684200,70.86968432617188,9.854000091552734,-0.20100000500679016,-0.19099999964237213
1702338722477801500,70.96980151367187,9.87399959564209,-0.1809999942779541,-0.2199999988079071
1702338722577725200,71.06972509765625,9.87399959564209,-0.19099999964237213,-0.1809999942779541
1702338722677691100,71.16969116210937,9.902000427246094,-0.1720000058412552,-0.1720000058412552
1702338722777930000,71.26992993164062,9.87399959564209,-0.20100000500679016,-0.1720000058412552
1702338722877812200,71.36981225585937,9.854000091552734,-0.20100000500679016,-0.20999999344348907
1702338722977698800,71.46969873046875,9.902000427246094,-0.1809999942779541,-0.16200000047683716
1702338723077701400,71.56970141601562,9.87399959564209,-0.19099999964237213,-0.19099999964237213
1702338723176714000,71.6687138671875,9.87399959564209,-0.20100000500679016,-0.20100000500679016
1702338723277806000,71.76980615234375,9.87399959564209,-0.16200000047683716,-0.20100000500679016
1702338723377976000,71.86997607421876,9.883000373840332,-0.19099999964237213,-0.16200000047683716
1702338723477693400,71.969693359375,9.86400032043457,-0.1809999942779541,-0.16200000047683716
1702338723577718800,72.06971875,9.87399959564209,-0.1809999942779541,-0.2199999988079071
1702338723676660700,72.16866064453124,9.902000427246094,-0.19099999964237213,-0.19099999964237213
1702338723777652700,72.26965283203126,9.883000373840332,-0.19099999964237213,-0.1809999942779541
1702338723877699000,72.36969897460938,9.87399959564209,-0.1809999942779541,-0.19099999964237213
1702338723977698000,72.46969799804687,9.86400032043457,-0.2199999988079071,-0.24899999797344208
1702338724077813000,72.56981298828126,9.87399959564209,-0.1809999942779541,-0.19099999964237213
1702338724177712600,72.66971264648437,9.883000373840332,-0.19099999964237213,-0.19099999964237213
1702338724276694000,72.76869409179687,9.87399959564209,-0.19099999964237213,-0.20100000500679016
1702338724376923100,72.86892309570312,9.87399959564209,-0.20999999344348907,-0.20100000500679016
1702338724477831000,72.96983081054688,9.883000373840332,-0.1720000058412552,-0.20999999344348907
1702338724577719600,73.06971948242187,9.854000091552734,-0.1720000058412552,-0.2290000021457672
1702338724678646000,73.17064599609375,9.854000091552734,-0.19099999964237213,-0.20999999344348907
1702338724777970400,73.26997045898437,9.87399959564209,-0.2199999988079071,-0.19099999964237213
1702338724877812000,73.36981201171875,9.883000373840332,-0.20100000500679016,-0.20100000500679016
1702338724977712000,73.46971215820312,9.892999649047852,-0.16200000047683716,-0.20100000500679016
1702338725077709300,73.56970922851562,9.911999702453613,-0.20100000500679016,-0.24899999797344208
1702338725177750500,73.66975048828125,9.86400032043457,-0.16200000047683716,-0.2290000021457672
1702338725277812700,73.76981274414062,9.883000373840332,-0.1720000058412552,-0.16200000047683716
1702338725378651000,73.87065087890625,9.86400032043457,-0.20100000500679016,-0.19099999964237213
1702338725477699600,73.96969946289063,9.854000091552734,-0.20100000500679016,-0.20100000500679016
1702338725577733400,74.0697333984375,9.87399959564209,-0.20100000500679016,-0.20100000500679016
1702338725678070300,74.1700703125,9.835000038146973,-0.20100000500679016,-0.2199999988079071
1702338725777982700,74.26998266601562,9.87399959564209,-0.20999999344348907,-0.2199999988079071
1702338725877659400,74.36965942382812,9.883000373840332,-0.1720000058412552,-0.2290000021457672
1702338725977699000,74.46969897460937,9.86400032043457,-0.1809999942779541,-0.2290000021457672
1702338726077811700,74.56981176757813,9.86400032043457,-0.16200000047683716,-0.1809999942779541
1702338726177711400,74.66971142578124,9.87399959564209,-0.2290000021457672,-0.20100000500679016
1702338726277697000,74.76969702148438,9.892999649047852,-0.1809999942779541,-0.20100000500679016
1702338726377889000,74.86988891601563,9.883000373840332,-0.1809999942779541,-0.14300000667572021
1702338726476640500,74.968640625,9.87399959564209,-0.1809999942779541,-0.1809999942779541
1702338726576591000,75.06859106445313,9.854000091552734,-0.16200000047683716,-0.2290000021457672
1702338726677014000,75.16901391601563,9.854000091552734,-0.1809999942779541,-0.19099999964237213
1702338726778440400,75.2704404296875,9.883000373840332,-0.19099999964237213,-0.1809999942779541
1702338726878385200,75.37038525390625,9.892999649047852,-0.20100000500679016,-0.19099999964237213
1702338726977694000,75.46969384765625,9.87399959564209,-0.19099999964237213,-0.1720000058412552
1702338727076619000,75.56861889648438,9.883000373840332,-0.2199999988079071,-0.20100000500679016
1702338727177697300,75.669697265625,9.86400032043457,-0.20999999344348907,-0.20100000500679016
1702338727277809000,75.76980883789062,9.902000427246094,-0.19099999964237213,-0.1809999942779541
1702338727377450500,75.86945043945312,9.883000373840332,-0.19099999964237213,-0.1809999942779541
1702338727477648400,75.9696484375,9.854000091552734,-0.1720000058412552,-0.1720000058412552
1702338727577743600,76.06974365234375,9.86400032043457,-0.19099999964237213,-0.2290000021457672
1702338727677813800,76.16981372070312,9.883000373840332,-0.16200000047683716,-0.16200000047683716
1702338727797633500,76.28963354492187,9.87399959564209,-0.1809999942779541,-0.20100000500679016
1702338727901723100,76.39372314453125,9.87399959564209,-0.1720000058412552,-0.19099999964237213
1702338727997708300,76.48970825195312,9.883000373840332,-0.20999999344348907,-0.19099999964237213
1702338728097679000,76.58967919921875,9.883000373840332,-0.1809999942779541,-0.2199999988079071
1702338728198446300,76.6904462890625,9.86400032043457,-0.19099999964237213,-0.2199999988079071
1702338728297887500,76.78988745117188,9.854000091552734,-0.20100000500679016,-0.20100000500679016
1702338728397575000,76.88957495117188,9.86400032043457,-0.1809999942779541,-0.20100000500679016
1702338728497735700,76.98973559570312,9.883000373840332,-0.1720000058412552,-0.16200000047683716
1702338728597976800,77.08997680664062,9.911999702453613,-0.15299999713897705,-0.20100000500679016
1702338728697702100,77.1897021484375,9.902000427246094,-0.20100000500679016,-0.20100000500679016
1702338728799022800,77.29102294921876,9.892999649047852,-0.1809999942779541,-0.2199999988079071
1702338728897692200,77.38969213867188,9.87399959564209,-0.16200000047683716,-0.1809999942779541
1702338728997695200,77.4896953125,9.892999649047852,-0.19099999964237213,-0.20999999344348907
1702338729097744400,77.58974438476562,9.86400032043457,-0.20100000500679016,-0.1809999942779541
1702338729196525000,77.68852514648438,9.892999649047852,-0.20100000500679016,-0.20100000500679016
1702338729297863400,77.78986352539063,9.86400032043457,-0.2199999988079071,-0.2199999988079071
1702338729399450000,77.8914501953125,9.87399959564209,-0.2199999988079071,-0.20100000500679016
1702338729496551700,77.9885517578125,9.883000373840332,-0.20100000500679016,-0.20100000500679016
1702338729597265700,78.089265625,9.892999649047852,-0.19099999964237213,-0.16200000047683716
1702338729696868400,78.18886840820312,9.87399959564209,-0.20999999344348907,-0.1809999942779541
1702338729799540000,78.2915400390625,9.883000373840332,-0.1809999942779541,-0.19099999964237213
1702338729897705700,78.38970581054687,9.883000373840332,-0.1720000058412552,-0.20999999344348907
1702338729997745700,78.48974560546876,9.883000373840332,-0.1809999942779541,-0.16200000047683716
1702338730097704400,78.58970434570313,9.892999649047852,-0.1809999942779541,-0.19099999964237213
1702338730197735000,78.68973486328125,9.87399959564209,-0.15299999713897705,-0.19099999964237213
1702338730297704400,78.78970434570313,9.86400032043457,-0.1809999942779541,-0.20100000500679016
1702338730399021300,78.89102124023438,9.854000091552734,-0.19099999964237213,-0.1720000058412552
1702338730497690000,78.98969018554688,9.87399959564209,-0.2290000021457672,-0.1720000058412552
1702338730597694200,79.08969409179687,9.854000091552734,-0.1809999942779541,-0.1720000058412552
1702338730699258600,79.19125854492188,9.87399959564209,-0.16200000047683716,-0.1720000058412552
1702338730799050000,79.29105004882813,9.883000373840332,-0.20100000500679016,-0.1809999942779541
1702338730897697000,79.38969702148438,9.86400032043457,-0.20999999344348907,-0.20100000500679016
1702338730997699600,79.48969946289063,9.902000427246094,-0.1720000058412552,-0.1809999942779541
1702338731097689300,79.589689453125,9.892999649047852,-0.15299999713897705,-0.19099999964237213
1702338731197694700,79.68969482421875,9.87399959564209,-0.20100000500679016,-0.15299999713897705
1702338731297658000,79.789658203125,9.86400032043457,-0.20100000500679016,-0.20999999344348907
1702338731397703400,79.88970336914062,9.87399959564209,-0.20100000500679016,-0.1720000058412552
1702338731497691100,79.98969116210938,9.854000091552734,-0.20999999344348907,-0.1809999942779541
1702338731597735700,80.08973559570312,9.86400032043457,-0.2199999988079071,-0.1720000058412552
1702338731697691600,80.18969165039063,9.911999702453613,-0.1720000058412552,-0.1809999942779541
1702338731799029200,80.291029296875,9.854000091552734,-0.19099999964237213,-0.20999999344348907
1702338731917538600,80.40953857421874,9.845000267028809,-0.16200000047683716,-0.20999999344348907
1702338732019016400,80.51101635742188,9.883000373840332,-0.1720000058412552,-0.19099999964237213
1702338732117669600,80.60966967773437,9.86400032043457,-0.19099999964237213,-0.19099999964237213
1702338732217674000,80.70967407226563,9.87399959564209,-0.20999999344348907,-0.20100000500679016
1702338732317677300,80.80967724609376,9.87399959564209,-0.1720000058412552,-0.2199999988079071
1702338732417699000,80.90969897460937,9.87399959564209,-0.1809999942779541,-0.20100000500679016
1702338732517677600,81.00967749023438,9.854000091552734,-0.19099999964237213,-0.20999999344348907
1702338732617663200,81.10966333007812,9.87399959564209,-0.19099999964237213,-0.1809999942779541
1702338732716527600,81.20852758789063,9.883000373840332,-0.20100000500679016,-0.19099999964237213
1702338732816518100,81.30851806640625,9.87399959564209,-0.19099999964237213,-0.19099999964237213
1702338732917122600,81.40912255859375,9.87399959564209,-0.1809999942779541,-0.20999999344348907
1702338733017692200,81.50969213867188,9.87399959564209,-0.19099999964237213,-0.1809999942779541
1702338733117794000,81.6097939453125,9.883000373840332,-0.1809999942779541,-0.20100000500679016
1702338733221309400,81.71330932617188,9.87399959564209,-0.19099999964237213,-0.1809999942779541
1702338733317811000,81.80981103515624,9.86400032043457,-0.19099999964237213,-0.20999999344348907
1702338733416559400,81.90855932617187,9.883000373840332,-0.1720000058412552,-0.1809999942779541
1702338733517702100,82.0097021484375,9.86400032043457,-0.1809999942779541,-0.1720000058412552
1702338733617673700,82.109673828125,9.87399959564209,-0.19099999964237213,-0.1720000058412552
1702338733716614100,82.2086142578125,9.892999649047852,-0.16200000047683716,-0.1809999942779541
1702338733817690600,82.30969067382813,9.883000373840332,-0.16200000047683716,-0.20100000500679016
1702338733917667800,82.40966772460938,9.883000373840332,-0.15299999713897705,-0.20100000500679016
1702338734017695700,82.50969580078124,9.883000373840332,-0.19099999964237213,-0.20100000500679016
1702338734117670000,82.609669921875,9.86400032043457,-0.1720000058412552,-0.1809999942779541
1702338734217705000,82.709705078125,9.892999649047852,-0.1809999942779541,-0.1720000058412552
1702338734317687600,82.8096875,9.87399959564209,-0.1720000058412552,-0.19099999964237213
1702338734416594200,82.90859423828125,9.854000091552734,-0.1809999942779541,-0.1809999942779541
1702338734516565500,83.0085654296875,9.883000373840332,-0.20100000500679016,-0.19099999964237213
1702338734617677800,83.109677734375,9.854000091552734,-0.19099999964237213,-0.1809999942779541
1702338734716554200,83.20855419921875,9.883000373840332,-0.19099999964237213,-0.16200000047683716
1702338734817689000,83.30968920898438,9.883000373840332,-0.19099999964237213,-0.20999999344348907
1702338734917692700,83.40969262695313,9.883000373840332,-0.1809999942779541,-0.19099999964237213
1702338735017698000,83.50969799804687,9.883000373840332,-0.1720000058412552,-0.16200000047683716
1702338735117685800,83.60968579101562,9.883000373840332,-0.20100000500679016,-0.1720000058412552
1702338735217702400,83.70970239257812,9.87399959564209,-0.20100000500679016,-0.2290000021457672
1702338735317766100,83.80976611328126,9.883000373840332,-0.15299999713897705,-0.1720000058412552
1702338735417702400,83.90970239257813,9.883000373840332,-0.1720000058412552,-0.2290000021457672
1702338735517707500,84.00970751953125,9.845000267028809,-0.19099999964237213,-0.20100000500679016
1702338735617681200,84.10968115234375,9.87399959564209,-0.20100000500679016,-0.1809999942779541
1702338735718055000,84.21005493164063,9.86400032043457,-0.1809999942779541,-0.19099999964237213
1702338735817681000,84.30968090820312,9.892999649047852,-0.19099999964237213,-0.1809999942779541
1702338735917694000,84.40969384765626,9.892999649047852,-0.1809999942779541,-0.1720000058412552
1702338736017685500,84.509685546875,9.87399959564209,-0.2199999988079071,-0.19099999964237213
1702338736117680600,84.6096806640625,9.892999649047852,-0.20999999344348907,-0.20100000500679016
1702338736217704400,84.70970434570313,9.835000038146973,-0.1809999942779541,-0.1809999942779541
1702338736317684000,84.80968408203125,9.883000373840332,-0.19099999964237213,-0.20100000500679016
1702338736417714000,84.9097138671875,9.883000373840332,-0.16200000047683716,-0.19099999964237213
1702338736517994800,85.00999487304688,9.892999649047852,-0.1809999942779541,-0.1720000058412552
1702338736617669000,85.10966918945313,9.87399959564209,-0.1720000058412552,-0.2199999988079071
1702338736717697800,85.20969775390626,9.854000091552734,-0.14300000667572021,-0.15299999713897705
1702338736817691100,85.30969116210937,9.883000373840332,-0.20100000500679016,-0.20100000500679016
1702338736917706500,85.40970654296875,9.883000373840332,-0.20999999344348907,-0.20100000500679016
1702338737018236700,85.51023657226563,9.87399959564209,-0.20100000500679016,-0.19099999964237213
1702338737117680600,85.6096806640625,9.883000373840332,-0.2290000021457672,-0.19099999964237213
1702338737217694500,85.70969458007812,9.87399959564209,-0.20100000500679016,-0.2199999988079071
1702338737317689600,85.80968969726563,9.854000091552734,-0.1809999942779541,-0.1809999942779541
1702338737418684000,85.91068383789063,9.883000373840332,-0.19099999964237213,-0.20100000500679016
1702338737517696000,86.00969604492188,9.883000373840332,-0.19099999964237213,-0.1809999942779541
1702338737617676800,86.1096767578125,9.892999649047852,-0.16200000047683716,-0.16200000047683716
1702338737717697800,86.20969775390626,9.883000373840332,-0.20999999344348907,-0.14300000667572021
1702338737817708000,86.3097080078125,9.835000038146973,-0.20100000500679016,-0.1809999942779541
1702338737917718500,86.40971850585937,9.86400032043457,-0.19099999964237213,-0.2199999988079071
1702338738017680400,86.50968041992188,9.86400032043457,-0.1809999942779541,-0.19099999964237213
1702338738117684000,86.60968408203125,9.86400032043457,-0.1809999942779541,-0.2199999988079071
1702338738217701600,86.70970166015626,9.87399959564209,-0.20100000500679016,-0.2199999988079071
1702338738317690600,86.80969067382813,9.87399959564209,-0.1720000058412552,-0.1720000058412552
1702338738417653800,86.90965380859375,9.86400032043457,-0.1809999942779541,-0.1809999942779541
1702338738516547600,87.00854760742187,9.86400032043457,-0.1720000058412552,-0.15299999713897705
1702338738616661500,87.10866162109374,9.883000373840332,-0.19099999964237213,-0.20999999344348907
1702338738717693000,87.20969287109375,9.883000373840332,-0.2290000021457672,-0.19099999964237213
1702338738817701000,87.309701171875,9.883000373840332,-0.20100000500679016,-0.16200000047683716
1702338738917700600,87.40970068359375,9.87399959564209,-0.1720000058412552,-0.15299999713897705
1702338739017705500,87.50970556640625,9.86400032043457,-0.19099999964237213,-0.20100000500679016
1702338739117675800,87.60967578125,9.892999649047852,-0.2199999988079071,-0.19099999964237213
1702338739216664000,87.7086640625,9.883000373840332,-0.1720000058412552,-0.19099999964237213
1702338739317677800,87.809677734375,9.87399959564209,-0.1720000058412552,-0.20100000500679016
1702338739420510200,87.91251025390625,9.854000091552734,-0.19099999964237213,-0.2290000021457672
1702338739517696300,88.0096962890625,9.883000373840332,-0.1809999942779541,-0.19099999964237213
1702338739617683700,88.10968359375,9.87399959564209,-0.1720000058412552,-0.1809999942779541
1702338739717701600,88.20970166015626,9.87399959564209,-0.1809999942779541,-0.1809999942779541
1702338739817896000,88.30989599609374,9.87399959564209,-0.20100000500679016,-0.19099999964237213
1702338739917692400,88.4096923828125,9.87399959564209,-0.20999999344348907,-0.19099999964237213
1702338740017675800,88.50967578125,9.86400032043457,-0.20100000500679016,-0.19099999964237213
1702338740117750300,88.60975024414063,9.835000038146973,-0.1720000058412552,-0.1809999942779541
1702338740217692200,88.70969213867187,9.892999649047852,-0.20100000500679016,-0.16200000047683716
1702338740317702000,88.80970190429687,9.854000091552734,-0.16200000047683716,-0.1720000058412552
1702338740417706000,88.9097060546875,9.86400032043457,-0.19099999964237213,-0.1809999942779541
1702338740517668400,89.00966845703125,9.86400032043457,-0.16200000047683716,-0.1809999942779541
1702338740617691600,89.10969165039063,9.845000267028809,-0.1809999942779541,-0.24899999797344208
1702338740717697000,89.20969702148437,9.883000373840332,-0.1720000058412552,-0.20100000500679016
1702338740817687600,89.3096875,9.86400032043457,-0.1809999942779541,-0.1809999942779541
1702338740917701000,89.409701171875,9.883000373840332,-0.1809999942779541,-0.16200000047683716
1702338741016567800,89.50856787109375,9.87399959564209,-0.20100000500679016,-0.20999999344348907
1702338741117696800,89.60969677734376,9.87399959564209,-0.19099999964237213,-0.23899999260902405
1702338741217905400,89.70990551757812,9.845000267028809,-0.19099999964237213,-0.19099999964237213
1702338741317700600,89.80970068359375,9.902000427246094,-0.20100000500679016,-0.20999999344348907
1702338741417708300,89.90970825195312,9.87399959564209,-0.20100000500679016,-0.14300000667572021
1702338741517694000,90.00969384765625,9.883000373840332,-0.1809999942779541,-0.1809999942779541
1702338741617699000,90.10969897460937,9.883000373840332,-0.19099999964237213,-0.19099999964237213
1702338741717690600,90.20969067382812,9.892999649047852,-0.20100000500679016,-0.1809999942779541
1702338741817707500,90.30970751953124,9.87399959564209,-0.1720000058412552,-0.19099999964237213
1702338741917709600,90.40970947265625,9.854000091552734,-0.15299999713897705,-0.16200000047683716
1702338742026336300,90.51833618164062,9.845000267028809,-0.1809999942779541,-0.20100000500679016
1702338742127744500,90.61974462890625,9.87399959564209,-0.20999999344348907,-0.16200000047683716
1702338742226603800,90.71860375976563,9.87399959564209,-0.1809999942779541,-0.20100000500679016
1702338742328028400,90.8200283203125,9.86400032043457,-0.19099999964237213,-0.2199999988079071
1702338742437019100,90.92901904296875,9.883000373840332,-0.19099999964237213,-0.20999999344348907
1702338742536540700,91.02854077148437,9.883000373840332,-0.19099999964237213,-0.16200000047683716
1702338742637698300,91.1296982421875,9.883000373840332,-0.2290000021457672,-0.20999999344348907
1702338742739201500,91.23120141601562,9.86400032043457,-0.2199999988079071,-0.1809999942779541
1702338742837691400,91.32969140625,9.854000091552734,-0.16200000047683716,-0.1809999942779541
1702338742937689000,91.42968920898437,9.892999649047852,-0.20100000500679016,-0.1809999942779541
1702338743037678300,91.52967822265624,9.892999649047852,-0.16200000047683716,-0.1809999942779541
1702338743137719600,91.62971948242188,9.883000373840332,-0.15299999713897705,-0.1809999942779541
1702338743237704700,91.72970458984375,9.902000427246094,-0.1809999942779541,-0.20999999344348907
1702338743337684000,91.82968408203125,9.892999649047852,-0.1720000058412552,-0.2199999988079071
1702338743438002700,91.93000268554688,9.86400032043457,-0.1809999942779541,-0.16200000047683716
1702338743536821000,92.02882104492187,9.883000373840332,-0.19099999964237213,-0.20999999344348907
1702338743637722600,92.12972265625,9.86400032043457,-0.20100000500679016,-0.19099999964237213
1702338743737724200,92.22972412109375,9.86400032043457,-0.1809999942779541,-0.19099999964237213
1702338743837686000,92.32968603515624,9.87399959564209,-0.1809999942779541,-0.20100000500679016
1702338743937693200,92.42969311523437,9.86400032043457,-0.20100000500679016,-0.16200000047683716
1702338744036594200,92.52859423828124,9.87399959564209,-0.16200000047683716,-0.20100000500679016
1702338744137675800,92.62967578125,9.86400032043457,-0.20999999344348907,-0.2199999988079071
1702338744237718800,92.72971875,9.87399959564209,-0.20999999344348907,-0.19099999964237213
1702338744337689300,92.829689453125,9.86400032043457,-0.16200000047683716,-0.1809999942779541
1702338744437673500,92.92967358398438,9.87399959564209,-0.20100000500679016,-0.2199999988079071
1702338744537673200,93.02967309570313,9.87399959564209,-0.1720000058412552,-0.19099999964237213
1702338744637682200,93.12968212890625,9.883000373840332,-0.1809999942779541,-0.19099999964237213
1702338744737674200,93.22967431640625,9.86400032043457,-0.1809999942779541,-0.1809999942779541
1702338744837675800,93.32967578125,9.883000373840332,-0.20999999344348907,-0.20100000500679016
1702338744937699800,93.42969995117187,9.892999649047852,-0.1809999942779541,-0.2199999988079071
1702338745037710600,93.52971069335938,9.86400032043457,-0.20100000500679016,-0.2199999988079071
1702338745137682000,93.62968188476563,9.883000373840332,-0.1720000058412552,-0.20100000500679016
1702338745237696800,93.72969677734375,9.854000091552734,-0.15299999713897705,-0.20100000500679016
1702338745337700000,93.8297001953125,9.854000091552734,-0.20999999344348907,-0.2199999988079071
1702338745437684000,93.92968408203124,9.86400032043457,-0.19099999964237213,-0.1809999942779541
1702338745536601900,94.02860180664062,9.883000373840332,-0.19099999964237213,-0.2290000021457672
1702338745637681000,94.12968090820313,9.911999702453613,-0.2199999988079071,-0.19099999964237213
1702338745737700000,94.2297001953125,9.854000091552734,-0.1809999942779541,-0.1720000058412552
1702338745837711000,94.32971118164062,9.87399959564209,-0.2199999988079071,-0.19099999964237213
1702338745937686000,94.42968603515625,9.86400032043457,-0.19099999964237213,-0.24899999797344208
1702338746037698000,94.52969799804687,9.87399959564209,-0.19099999964237213,-0.1809999942779541
1702338746137696800,94.62969677734375,9.87399959564209,-0.19099999964237213,-0.20999999344348907
1702338746237742600,94.72974267578125,9.892999649047852,-0.1809999942779541,-0.20100000500679016
1702338746337694200,94.82969409179688,9.87399959564209,-0.1720000058412552,-0.2199999988079071
1702338746437692700,94.92969262695313,9.883000373840332,-0.2199999988079071,-0.23899999260902405
1702338746537675500,95.02967553710937,9.87399959564209,-0.1809999942779541,-0.2290000021457672
1702338746637689600,95.12968969726562,9.883000373840332,-0.20999999344348907,-0.19099999964237213
1702338746737731800,95.22973193359375,9.86400032043457,-0.2199999988079071,-0.20100000500679016
1702338746837690000,95.32969018554688,9.87399959564209,-0.1809999942779541,-0.2199999988079071
1702338746937676300,95.42967626953126,9.86400032043457,-0.16200000047683716,-0.20100000500679016
1702338747038286600,95.53028662109375,9.892999649047852,-0.2199999988079071,-0.23899999260902405
1702338747138448000,95.63044775390625,9.87399959564209,-0.15299999713897705,-0.19099999964237213
1702338747237698000,95.72969799804687,9.883000373840332,-0.20999999344348907,-0.19099999964237213
1702338747337598700,95.8295986328125,9.883000373840332,-0.1720000058412552,-0.20999999344348907
1702338747437629400,95.92962939453125,9.87399959564209,-0.19099999964237213,-0.20100000500679016
1702338747536536000,96.0285361328125,9.87399959564209,-0.1720000058412552,-0.20100000500679016
1702338747636542700,96.12854272460937,9.892999649047852,-0.1720000058412552,-0.20999999344348907
1702338747737536300,96.22953637695312,9.87399959564209,-0.20999999344348907,-0.1720000058412552
1702338747838227200,96.33022729492187,9.892999649047852,-0.15299999713897705,-0.1720000058412552
1702338747937758700,96.4297587890625,10.074999809265137,-0.1720000058412552,-0.23899999260902405
1702338748037665800,96.52966577148437,10.045999526977539,-0.19099999964237213,-0.2290000021457672
1702338748137764400,96.62976440429688,10.142000198364258,-0.20100000500679016,-0.23899999260902405
1702338748237779000,96.72977905273437,9.74899959564209,-0.04699999839067459,0.2680000066757202
1702338748337685200,96.82968530273438,9.854000091552734,-0.1809999942779541,-0.16200000047683716
1702338748437706200,96.92970629882812,9.86400032043457,-0.20100000500679016,-0.1720000058412552
1702338748537693200,97.02969311523438,9.920999526977539,-0.0949999988079071,-0.2680000066757202
1702338748637665000,97.1296650390625,9.489999771118164,-2.7769999504089355,-6.340000152587891
1702338748737676800,97.2296767578125,10.946000099182129,-0.44999998807907104,-0.9860000014305115
1702338748837672000,97.329671875,9.930999755859375,-0.1809999942779541,0.008999999612569809
1702338748937683200,97.42968310546875,9.845000267028809,-0.2290000021457672,-0.02800000086426735
1702338749037667000,97.5296669921875,10.123000144958496,0.0949999988079071,2.1449999809265137
1702338749137681700,97.629681640625,9.595999717712402,-1.2450000047683716,0.19099999964237213
1702338749237686800,97.72968676757813,9.538000106811523,-0.7559999823570251,-0.8040000200271606
1702338749337687800,97.82968774414063,9.930999755859375,-1.062999963760376,-0.45899999141693115
1702338749437680000,97.92968017578124,11.26200008392334,1.2829999923706055,1.0529999732971191
1702338749537673200,98.02967309570313,9.845000267028809,0,-0.03799999877810478
1702338749637676000,98.12967602539062,9.902000427246094,-0.3160000145435333,-0.4690000116825104
1702338749737663700,98.22966381835937,9.883000373840332,-0.04699999839067459,0.5740000009536743
1702338749837682400,98.32968237304688,9.442999839782715,0.4020000100135803,0
1702338749937688800,98.42968872070313,9.854000091552734,-0.7080000042915344,-1.1200000047683716
1702338750037684500,98.5296845703125,10.008000373840332,-0.9570000171661377,-0.2199999988079071
1702338750137691400,98.62969140625,11.70300006866455,1.1679999828338623,-0.41100001335144043
1702338750237677300,98.72967724609374,9.729999542236328,2.2980000972747803,0.5260000228881836
1702338750337681000,98.82968090820313,10.314000129699707,0.5360000133514404,0.008999999612569809
1702338750438169600,98.93016967773437,9.902000427246094,-0.5550000071525574,0.3440000116825104
1702338750537683000,99.02968286132813,10.447999954223633,-0.9190000295639038,-0.1340000033378601
1702338750637677300,99.12967724609375,11.817999839782715,1.0529999732971191,0.4779999852180481
1702338750737670100,99.22967016601562,10.840999603271484,1.340000033378601,0.5839999914169312
1702338750837673500,99.32967358398437,9.25100040435791,0.6790000200271606,-0.06700000166893005
1702338750937696000,99.42969604492187,10.102999687194824,-0.7080000042915344,-2.259999990463257
1702338751037679900,99.52967993164063,8.236000061035156,0.15299999713897705,-2.815000057220459
1702338751137675300,99.62967529296876,10.534000396728516,0.6510000228881836,-2.7769999504089355
1702338751237637400,99.72963745117187,8.121000289916992,0.746999979019165,-3.9549999237060547
1702338751337680000,99.82967993164063,9.480999946594238,0.4690000116825104,-2.624000072479248
1702338751437687600,99.9296875,9.088000297546387,0.03799999877810478,-3.7820000648498535
1702338751537710600,100.02971069335938,10.074999809265137,-0.8330000042915344,-2.384000062942505
1702338751637682400,100.12968237304688,9.682000160217285,-0.6119999885559082,-1.2350000143051147
1702338751737682700,100.2296826171875,9.001999855041504,-1.781000018119812,-1.9149999618530273
1702338751837677000,100.32967700195313,9.355999946594238,-1.9529999494552612,-1.034000039100647
1702338751937698000,100.42969799804688,10.447999954223633,-0.4300000071525574,-1.36899995803833
1702338752047467300,100.53946728515625,15.189000129699707,0.8610000014305115,2.1540000438690186
1702338752147698400,100.63969848632813,9.949999809265137,-0.23899999260902405,-0.20100000500679016
1702338752247747800,100.73974780273437,9.883000373840332,-0.2199999988079071,-0.06700000166893005
1702338752347711200,100.83971118164062,9.98799991607666,-0.28700000047683716,-0.04699999839067459
1702338752447705600,100.93970556640625,9.902000427246094,-0.257999986410141,-0.05700000002980232
1702338752549036300,101.04103637695313,9.892999649047852,-0.23899999260902405,-0.12399999797344208
1702338752646635500,101.13863549804688,9.86400032043457,-0.2290000021457672,-0.11400000005960464
1702338752747709400,101.23970947265624,9.892999649047852,-0.24899999797344208,-0.10499999672174454
1702338752847698400,101.33969848632813,9.86400032043457,-0.23899999260902405,-0.0860000029206276
1702338752947708200,101.43970825195312,9.883000373840332,-0.24899999797344208,-0.11400000005960464
1702338753048758300,101.54075830078125,9.87399959564209,-0.24899999797344208,-0.10499999672174454
1702338753148063500,101.6400634765625,9.883000373840332,-0.23899999260902405,-0.0949999988079071
1702338753248222700,101.74022265625,9.902000427246094,-0.20999999344348907,-0.07599999755620956
1702338753347704800,101.83970483398437,9.87399959564209,-0.23899999260902405,-0.14300000667572021
1702338753448102000,101.94010180664063,9.892999649047852,-0.24899999797344208,-0.11400000005960464
1702338753547711500,102.03971142578125,9.883000373840332,-0.23899999260902405,-0.07599999755620956
1702338753647700000,102.13969995117188,9.892999649047852,-0.2290000021457672,-0.04699999839067459
1702338753747702500,102.23970263671875,9.87399959564209,-0.24899999797344208,-0.10499999672174454
1702338753847708700,102.33970874023437,9.854000091552734,-0.20999999344348907,-0.07599999755620956
1702338753947707600,102.43970776367188,9.86400032043457,-0.2290000021457672,-0.0949999988079071
1702338754048682000,102.54068188476562,9.930999755859375,-0.23899999260902405,-0.10499999672174454
1702338754147700500,102.63970043945312,9.892999649047852,-0.2290000021457672,-0.0949999988079071
1702338754247691500,102.73969140625,9.883000373840332,-0.2290000021457672,-0.06700000166893005
1702338754347702500,102.83970263671876,9.854000091552734,-0.2290000021457672,-0.0949999988079071
1702338754447573000,102.93957299804687,9.892999649047852,-0.20999999344348907,-0.05700000002980232
1702338754547683600,103.03968359375,9.883000373840332,-0.2290000021457672,-0.0949999988079071
1702338754646579700,103.13857983398438,9.883000373840332,-0.2199999988079071,-0.0860000029206276
1702338754747697400,103.23969750976562,9.883000373840332,-0.23899999260902405,-0.07599999755620956
1702338754847705300,103.33970532226563,9.902000427246094,-0.23899999260902405,-0.0949999988079071
1702338754947746600,103.43974658203125,9.845000267028809,-0.23899999260902405,-0.0949999988079071
1702338755048769300,103.54076928710937,9.87399959564209,-0.2680000066757202,-0.10499999672174454
1702338755147713000,103.63971313476563,9.854000091552734,-0.2199999988079071,-0.0949999988079071
1702338755247693600,103.73969360351562,9.87399959564209,-0.23899999260902405,-0.07599999755620956
1702338755347698200,103.8396982421875,9.854000091552734,-0.2290000021457672,-0.07599999755620956
1702338755447699500,103.93969946289063,9.883000373840332,-0.2199999988079071,-0.07599999755620956
1702338755546607600,104.03860766601562,9.87399959564209,-0.20999999344348907,-0.05700000002980232
1702338755647687700,104.13968774414063,9.87399959564209,-0.2199999988079071,-0.0860000029206276
1702338755747928300,104.23992822265625,9.883000373840332,-0.23899999260902405,-0.07599999755620956
1702338755847727900,104.33972778320313,9.86400032043457,-0.2290000021457672,-0.0949999988079071
1702338755947717000,104.43971704101563,9.940999984741211,-0.2199999988079071,-0.10499999672174454
1702338756048689700,104.54068969726562,9.911999702453613,-0.20999999344348907,-0.06700000166893005
1702338756148135700,104.6401357421875,9.815999984741211,-0.20999999344348907,-0.03799999877810478
1702338756247698200,104.7396982421875,9.892999649047852,-0.2199999988079071,-0.0949999988079071
1702338756346652400,104.83865234375,9.892999649047852,-0.23899999260902405,-0.07599999755620956
1702338756447905800,104.93990576171875,9.883000373840332,-0.2290000021457672,-0.10499999672174454
1702338756547243300,105.0392431640625,9.883000373840332,-0.2199999988079071,-0.0860000029206276
1702338756647695600,105.13969555664063,9.883000373840332,-0.257999986410141,-0.05700000002980232
1702338756747711200,105.23971118164063,9.883000373840332,-0.2290000021457672,-0.10499999672174454
1702338756847722500,105.33972241210938,9.86400032043457,-0.23899999260902405,-0.06700000166893005
1702338756947693600,105.43969360351562,9.902000427246094,-0.2290000021457672,-0.0860000029206276
1702338757048728000,105.54072802734375,9.883000373840332,-0.2290000021457672,-0.0860000029206276
1702338757147704800,105.63970483398438,9.902000427246094,-0.20999999344348907,-0.06700000166893005
1702338757247704600,105.73970458984375,9.87399959564209,-0.24899999797344208,-0.07599999755620956
1702338757347693600,105.83969360351563,9.883000373840332,-0.23899999260902405,-0.10499999672174454
1702338757447680300,105.93968017578125,9.883000373840332,-0.23899999260902405,-0.0860000029206276
1702338757547177500,106.03917749023438,9.87399959564209,-0.24899999797344208,-0.10499999672174454
1702338757657640700,106.149640625,9.892999649047852,-0.2199999988079071,-0.12399999797344208
1702338757760440000,106.25244018554687,9.86400032043457,-0.2290000021457672,-0.10499999672174454
1702338757857689000,106.34968920898437,9.892999649047852,-0.20999999344348907,-0.0949999988079071
1702338757957701000,106.449701171875,9.892999649047852,-0.2290000021457672,-0.0860000029206276
1702338758057698000,106.54969799804688,9.883000373840332,-0.2290000021457672,-0.06700000166893005
1702338758157701600,106.64970166015625,9.892999649047852,-0.2290000021457672,-0.10499999672174454
1702338758257701400,106.74970141601563,9.86400032043457,-0.23899999260902405,-0.0860000029206276
1702338758358523000,106.85052294921876,9.87399959564209,-0.20999999344348907,-0.0860000029206276
1702338758457712000,106.94971215820313,9.87399959564209,-0.2199999988079071,-0.04699999839067459
1702338758556618800,107.04861865234375,9.86400032043457,-0.24899999797344208,-0.12399999797344208
1702338758657706000,107.1497060546875,9.902000427246094,-0.2199999988079071,-0.07599999755620956
1702338758756677000,107.24867700195313,9.87399959564209,-0.2199999988079071,-0.0860000029206276
1702338758857701600,107.34970166015626,9.86400032043457,-0.2199999988079071,-0.07599999755620956
1702338758957699800,107.44969995117188,9.845000267028809,-0.19099999964237213,-0.06700000166893005
1702338759057700000,107.5497001953125,9.86400032043457,-0.24899999797344208,-0.0860000029206276
1702338759157723400,107.64972338867187,9.86400032043457,-0.20999999344348907,-0.0860000029206276
1702338759257699600,107.74969946289062,9.87399959564209,-0.20999999344348907,-0.10499999672174454
1702338759357712100,107.84971215820312,9.845000267028809,-0.2199999988079071,-0.06700000166893005
1702338759457703400,107.94970336914062,9.86400032043457,-0.2199999988079071,-0.03799999877810478
1702338759557359000,108.04935913085937,9.892999649047852,-0.2199999988079071,-0.07599999755620956
1702338759657689300,108.149689453125,9.911999702453613,-0.2290000021457672,-0.06700000166893005
1702338759764366800,108.25636694335938,9.87399959564209,-0.2290000021457672,-0.0949999988079071
1702338759877692000,108.36969189453124,9.892999649047852,-0.2290000021457672,-0.07599999755620956
1702338759977694000,108.46969384765625,9.892999649047852,-0.23899999260902405,-0.1340000033378601
1702338760077812500,108.5698125,9.86400032043457,-0.2290000021457672,-0.07599999755620956
1702338760177687300,108.66968725585937,9.883000373840332,-0.2290000021457672,-0.0860000029206276
1702338760277699800,108.76969995117187,9.87399959564209,-0.23899999260902405,-0.0949999988079071
1702338760377622300,108.86962231445312,9.892999649047852,-0.24899999797344208,-0.11400000005960464
1702338760477796900,108.969796875,9.86400032043457,-0.2290000021457672,-0.06700000166893005
1702338760577726700,109.06972680664063,9.902000427246094,-0.2199999988079071,-0.10499999672174454
1702338760677705200,109.16970532226563,9.883000373840332,-0.2290000021457672,-0.10499999672174454
1702338760776751000,109.26875122070312,9.87399959564209,-0.2290000021457672,-0.11400000005960464
1702338760877806600,109.369806640625,9.86400032043457,-0.20999999344348907,-0.07599999755620956
1702338760997529900,109.48952978515625,9.883000373840332,-0.2290000021457672,-0.0860000029206276
1702338761097706000,109.5897060546875,9.86400032043457,-0.257999986410141,-0.11400000005960464
1702338761197708800,109.68970874023438,9.883000373840332,-0.20999999344348907,-0.0860000029206276
1702338761297351700,109.7893515625,9.892999649047852,-0.2199999988079071,-0.07599999755620956
1702338761397943600,109.88994360351562,9.883000373840332,-0.2199999988079071,-0.0949999988079071
1702338761498970400,109.99097045898438,9.87399959564209,-0.2199999988079071,-0.07599999755620956
1702338761597700900,110.08970092773437,9.883000373840332,-0.2290000021457672,-0.06700000166893005
1702338761697697300,110.189697265625,9.87399959564209,-0.24899999797344208,-0.07599999755620956
1702338761800421000,110.29242114257812,9.854000091552734,-0.2199999988079071,-0.10499999672174454
1702338761899028700,110.39102880859375,9.86400032043457,-0.2290000021457672,-0.12399999797344208
1702338761997710600,110.48971069335937,9.883000373840332,-0.2199999988079071,-0.0949999988079071
1702338762104920600,110.59692065429688,9.86400032043457,-0.23899999260902405,-0.0860000029206276
1702338762217686500,110.7096865234375,9.87399959564209,-0.23899999260902405,-0.07599999755620956
1702338762317701400,110.80970141601563,9.883000373840332,-0.24899999797344208,-0.06700000166893005
1702338762417689600,110.90968969726562,9.902000427246094,-0.24899999797344208,-0.05700000002980232
1702338762517964300,111.00996435546875,9.892999649047852,-0.23899999260902405,-0.11400000005960464
1702338762617919200,111.10991918945312,9.86400032043457,-0.23899999260902405,-0.0860000029206276
1702338762717692700,111.20969262695313,9.845000267028809,-0.24899999797344208,-0.10499999672174454
1702338762817743000,111.3097431640625,9.930999755859375,-0.20999999344348907,-0.11400000005960464
1702338762917747700,111.40974780273437,9.87399959564209,-0.23899999260902405,-0.0949999988079071
1702338763017691400,111.50969140625,9.920999526977539,-0.257999986410141,-0.07599999755620956
1702338763117683000,111.60968286132812,9.892999649047852,-0.2290000021457672,-0.0949999988079071
1702338763219028700,111.71102880859375,9.892999649047852,-0.20100000500679016,-0.0860000029206276
1702338763317704400,111.80970434570312,9.87399959564209,-0.23899999260902405,-0.0860000029206276
1702338763417703400,111.90970336914063,9.87399959564209,-0.2290000021457672,-0.07599999755620956
1702338763517693700,112.00969360351563,9.883000373840332,-0.2290000021457672,-0.0860000029206276
1702338763617680400,112.10968041992187,9.902000427246094,-0.20100000500679016,-0.10499999672174454
1702338763717684700,112.20968481445313,9.87399959564209,-0.2199999988079071,-0.0949999988079071
1702338763817725700,112.3097255859375,9.86400032043457,-0.24899999797344208,-0.07599999755620956
1702338763918016000,112.41001611328124,9.87399959564209,-0.2199999988079071,-0.0949999988079071
1702338764019509200,112.51150927734375,9.902000427246094,-0.23899999260902405,-0.0949999988079071
1702338764117742000,112.6097421875,9.892999649047852,-0.2199999988079071,-0.10499999672174454
1702338764217693200,112.70969311523437,9.86400032043457,-0.23899999260902405,-0.11400000005960464
1702338764317691100,112.80969116210937,9.87399959564209,-0.23899999260902405,-0.0949999988079071
1702338764417684700,112.90968481445313,9.86400032043457,-0.24899999797344208,-0.07599999755620956
1702338764517703700,113.00970361328125,9.86400032043457,-0.257999986410141,-0.12399999797344208
1702338764617700400,113.10970043945312,9.854000091552734,-0.23899999260902405,-0.0860000029206276
1702338764717695500,113.20969555664063,9.854000091552734,-0.23899999260902405,-0.06700000166893005
1702338764817692700,113.30969262695312,9.902000427246094,-0.2290000021457672,-0.0949999988079071
1702338764917688300,113.40968823242187,9.902000427246094,-0.2199999988079071,-0.0949999988079071
1702338765037650700,113.52965063476563,9.86400032043457,-0.24899999797344208,-0.07599999755620956
1702338765137668000,113.62966821289062,9.883000373840332,-0.2770000100135803,-0.0949999988079071
1702338765237737200,113.7297373046875,9.87399959564209,-0.2290000021457672,-0.1340000033378601
1702338765337687800,113.82968774414063,9.902000427246094,-0.2199999988079071,-0.0860000029206276
1702338765437681200,113.92968115234375,9.883000373840332,-0.24899999797344208,-0.06700000166893005
1702338765537693200,114.02969311523438,9.883000373840332,-0.257999986410141,-0.0949999988079071
1702338765637715000,114.12971484375,9.87399959564209,-0.23899999260902405,-0.12399999797344208
1702338765737678600,114.2296787109375,9.87399959564209,-0.2290000021457672,-0.10499999672174454
1702338765837736000,114.32973583984375,9.86400032043457,-0.24899999797344208,-0.0949999988079071
1702338765939054800,114.43105493164063,9.883000373840332,-0.23899999260902405,-0.0949999988079071
1702338766037676500,114.52967651367187,9.892999649047852,-0.23899999260902405,-0.0949999988079071
1702338766137680000,114.62967993164062,9.902000427246094,-0.24899999797344208,-0.0949999988079071
1702338766237688000,114.72968798828126,9.86400032043457,-0.23899999260902405,-0.0860000029206276
1702338766337684200,114.82968432617187,9.892999649047852,-0.2199999988079071,-0.0949999988079071
1702338766437689300,114.929689453125,9.902000427246094,-0.19099999964237213,-0.05700000002980232
1702338766537159400,115.02915942382812,9.86400032043457,-0.2199999988079071,-0.0860000029206276
1702338766636716000,115.12871606445313,9.87399959564209,-0.24899999797344208,-0.10499999672174454
1702338766737704700,115.22970458984375,9.87399959564209,-0.2199999988079071,-0.07599999755620956
1702338766837701400,115.32970141601562,9.883000373840332,-0.23899999260902405,-0.07599999755620956
1702338766937703700,115.42970361328125,9.892999649047852,-0.2290000021457672,-0.0949999988079071
1702338767037709000,115.529708984375,9.854000091552734,-0.2290000021457672,-0.0949999988079071
1702338767137708000,115.6297080078125,9.883000373840332,-0.2290000021457672,-0.12399999797344208
1702338767237675300,115.72967529296875,9.87399959564209,-0.2290000021457672,-0.11400000005960464
1702338767336910800,115.82891088867187,9.892999649047852,-0.20100000500679016,-0.11400000005960464
1702338767437677600,115.92967749023437,9.86400032043457,-0.2290000021457672,-0.11400000005960464
1702338767538503000,116.0305029296875,9.87399959564209,-0.2199999988079071,-0.0949999988079071
1702338767637683500,116.12968334960938,9.87399959564209,-0.2290000021457672,-0.0949999988079071
1702338767737691100,116.22969116210938,9.892999649047852,-0.2290000021457672,-0.1340000033378601
1702338767837727500,116.3297275390625,9.892999649047852,-0.2199999988079071,-0.0949999988079071
1702338767937685500,116.429685546875,9.892999649047852,-0.2290000021457672,-0.1340000033378601
1702338768037688800,116.52968872070312,9.86400032043457,-0.23899999260902405,-0.0949999988079071
1702338768137726700,116.62972680664062,9.87399959564209,-0.23899999260902405,-0.10499999672174454
1702338768237784000,116.7297841796875,9.87399959564209,-0.2199999988079071,-0.0949999988079071
1702338768337675500,116.82967553710938,9.902000427246094,-0.2199999988079071,-0.0949999988079071
1702338768437685500,116.929685546875,9.86400032043457,-0.20100000500679016,-0.0860000029206276
1702338768537753000,117.02975317382813,9.892999649047852,-0.24899999797344208,-0.10499999672174454
1702338768637812000,117.12981201171876,9.883000373840332,-0.2199999988079071,-0.10499999672174454
1702338768737684200,117.22968432617188,9.87399959564209,-0.2199999988079071,-0.10499999672174454
1702338768837737200,117.3297373046875,9.87399959564209,-0.257999986410141,-0.07599999755620956
1702338768937671000,117.4296708984375,9.87399959564209,-0.257999986410141,-0.0949999988079071
1702338769037666000,117.529666015625,9.892999649047852,-0.24899999797344208,-0.07599999755620956
1702338769137676800,117.6296767578125,9.892999649047852,-0.20999999344348907,-0.0860000029206276
1702338769237694000,117.72969384765625,9.87399959564209,-0.2199999988079071,-0.0860000029206276
1702338769337722000,117.82972216796875,9.911999702453613,-0.24899999797344208,-0.0860000029206276
1702338769437712400,117.92971240234375,9.87399959564209,-0.2290000021457672,-0.0949999988079071
1702338769537680100,118.02968017578125,9.911999702453613,-0.2199999988079071,-0.0860000029206276
1702338769640469500,118.13246948242187,9.883000373840332,-0.23899999260902405,-0.0860000029206276
1702338769737674500,118.22967456054687,9.883000373840332,-0.23899999260902405,-0.07599999755620956
1702338769836609300,118.328609375,9.892999649047852,-0.2199999988079071,-0.06700000166893005
1702338769937708500,118.42970849609375,9.883000373840332,-0.257999986410141,-0.11400000005960464
1702338770037876500,118.52987646484375,9.86400032043457,-0.2680000066757202,-0.0860000029206276
1702338770137683200,118.62968310546874,9.87399959564209,-0.23899999260902405,-0.07599999755620956
1702338770237684000,118.72968408203126,9.883000373840332,-0.24899999797344208,-0.0860000029206276
1702338770337677800,118.829677734375,9.892999649047852,-0.2199999988079071,-0.06700000166893005
1702338770436581000,118.9285810546875,9.892999649047852,-0.2290000021457672,-0.11400000005960464
1702338770536532500,119.02853247070313,9.854000091552734,-0.2199999988079071,-0.10499999672174454
1702338770637692400,119.1296923828125,9.883000373840332,-0.2290000021457672,-0.10499999672174454
1702338770737687800,119.22968774414062,9.883000373840332,-0.20100000500679016,-0.12399999797344208
1702338770837700000,119.3297001953125,9.892999649047852,-0.2290000021457672,-0.0860000029206276
1702338770937683200,119.42968310546875,9.883000373840332,-0.257999986410141,-0.12399999797344208
1702338771037668900,119.5296689453125,9.892999649047852,-0.2290000021457672,-0.07599999755620956
1702338771137663200,119.62966333007813,9.902000427246094,-0.2199999988079071,-0.11400000005960464
1702338771237689000,119.72968920898437,9.892999649047852,-0.257999986410141,-0.10499999672174454
1702338771337697800,119.82969775390625,9.911999702453613,-0.257999986410141,-0.257999986410141
1702338771437690600,119.92969067382812,9.87399959564209,-0.257999986410141,-0.07599999755620956
1702338771537684000,120.02968408203125,9.845000267028809,-0.24899999797344208,-0.0860000029206276
1702338771637655800,120.12965576171875,9.86400032043457,-0.23899999260902405,-0.12399999797344208
1702338771737684500,120.2296845703125,9.892999649047852,-0.20100000500679016,-0.11400000005960464
1702338771837703000,120.32970288085937,9.940999984741211,-0.2290000021457672,-0.10499999672174454
1702338771937692400,120.4296923828125,9.87399959564209,-0.23899999260902405,-0.06700000166893005
1702338772037677300,120.52967724609375,9.920999526977539,-0.23899999260902405,-0.06700000166893005
1702338772137847300,120.62984741210937,9.87399959564209,-0.24899999797344208,-0.07599999755620956
1702338772237670700,120.72967065429688,9.902000427246094,-0.24899999797344208,-0.06700000166893005
1702338772337709600,120.82970947265625,9.892999649047852,-0.20999999344348907,-0.0949999988079071
1702338772437686500,120.9296865234375,9.883000373840332,-0.257999986410141,-0.11400000005960464
1702338772537688800,121.02968872070312,9.902000427246094,-0.2290000021457672,-0.10499999672174454
1702338772637861000,121.12986108398438,9.854000091552734,-0.20999999344348907,-0.12399999797344208
1702338772737703000,121.22970288085938,9.930999755859375,-0.2290000021457672,-0.0860000029206276
1702338772837695200,121.3296953125,9.87399959564209,-0.20999999344348907,-0.0949999988079071
1702338772937676000,121.42967602539062,9.902000427246094,-0.20999999344348907,-0.06700000166893005
1702338773037667300,121.52966723632812,9.87399959564209,-0.2199999988079071,-0.12399999797344208
1702338773137682400,121.62968237304688,9.883000373840332,-0.257999986410141,-0.0860000029206276
1702338773237690600,121.72969067382813,9.883000373840332,-0.20999999344348907,-0.11400000005960464
1702338773337676500,121.82967651367187,9.883000373840332,-0.2680000066757202,-0.12399999797344208
1702338773437684000,121.92968408203124,9.86400032043457,-0.23899999260902405,-0.11400000005960464
1702338773536673000,122.02867309570313,9.86400032043457,-0.2290000021457672,-0.0860000029206276
1702338773637749800,122.12974975585938,9.968999862670898,-0.24899999797344208,-0.1340000033378601
1702338773737702000,122.22970190429687,9.87399959564209,-0.20100000500679016,-0.0860000029206276
1702338773836909800,122.32890991210938,9.892999649047852,-0.257999986410141,-0.12399999797344208
1702338773937710300,122.42971044921875,9.883000373840332,-0.2199999988079071,-0.11400000005960464
1702338774037696300,122.5296962890625,9.87399959564209,-0.20999999344348907,-0.0949999988079071
1702338774137700400,122.62970043945313,9.902000427246094,-0.2199999988079071,-0.11400000005960464
1702338774237708500,122.72970849609375,9.87399959564209,-0.2199999988079071,-0.11400000005960464
1702338774337675000,122.82967504882812,9.920999526977539,-0.23899999260902405,-0.1340000033378601
1702338774437694200,122.92969409179688,9.892999649047852,-0.23899999260902405,-0.12399999797344208
1702338774537671000,123.0296708984375,9.854000091552734,-0.2290000021457672,-0.10499999672174454
1702338774637678800,123.12967895507812,9.87399959564209,-0.24899999797344208,-0.11400000005960464
1702338774737697300,123.229697265625,9.883000373840332,-0.23899999260902405,-0.07599999755620956
1702338774837839000,123.32983911132813,9.892999649047852,-0.2290000021457672,-0.1340000033378601
1702338774937682000,123.42968188476563,9.892999649047852,-0.2199999988079071,-0.1340000033378601
1702338775037679900,123.52967993164063,9.892999649047852,-0.20100000500679016,-0.14300000667572021
1702338775137673200,123.62967309570313,9.87399959564209,-0.23899999260902405,-0.10499999672174454
1702338775237682700,123.7296826171875,9.902000427246094,-0.23899999260902405,-0.0949999988079071
1702338775337689900,123.82968994140624,9.883000373840332,-0.2199999988079071,-0.12399999797344208
1702338775437786600,123.92978662109375,9.87399959564209,-0.2290000021457672,-0.11400000005960464
1702338775537662200,124.029662109375,9.883000373840332,-0.20100000500679016,-0.14300000667572021
1702338775637546200,124.12954614257812,9.892999649047852,-0.257999986410141,-0.1340000033378601
1702338775738996500,124.23099658203125,9.86400032043457,-0.20100000500679016,-0.11400000005960464
1702338775837762800,124.3297626953125,9.883000373840332,-0.2290000021457672,-0.10499999672174454
1702338775937668900,124.4296689453125,9.87399959564209,-0.24899999797344208,-0.11400000005960464
1702338776037739300,124.5297392578125,9.883000373840332,-0.2290000021457672,-0.0860000029206276
1702338776137704400,124.62970434570312,9.883000373840332,-0.2199999988079071,-0.0949999988079071
1702338776236546800,124.728546875,9.920999526977539,-0.2290000021457672,-0.11400000005960464
1702338776336525600,124.82852563476563,9.902000427246094,-0.24899999797344208,-0.10499999672174454
1702338776436871000,124.92887084960938,9.883000373840332,-0.2290000021457672,-0.07599999755620956
1702338776536986000,125.02898608398438,9.883000373840332,-0.2290000021457672,-0.0949999988079071
1702338776637701600,125.12970166015624,9.883000373840332,-0.24899999797344208,-0.0949999988079071
1702338776737774600,125.22977465820313,9.87399959564209,-0.23899999260902405,-0.05700000002980232
1702338776837686800,125.32968676757812,9.87399959564209,-0.2199999988079071,-0.0860000029206276
1702338776937734100,125.42973413085937,9.87399959564209,-0.19099999964237213,-0.10499999672174454
