time,seconds_elapsed,z,y,x
1702338741572357000,0.132357177734375,0.14090000092983246,1.1811000108718872,1.1596999168395996
1702338741672358700,0.232358642578125,-0.5367000102996826,1.0145000219345093,0.9185999631881714
1702338741772358700,0.332358642578125,1.6875,0.14559999108314514,0.847000002861023
1702338741872344600,0.432344482421875,0.1224999949336052,0.32829999923706055,0.5494999885559082
1702338741972363300,0.53236328125,1.6024999618530273,0.2254999876022339,-0.23429998755455017
1702338742072347600,0.63234765625,0.14159999787807465,0.1995999962091446,-0.46699997782707214
1702338742172335000,0.732335205078125,1.2461999654769897,0.1808999925851822,0.5062999725341797
1702338742272367900,0.832367919921875,0.590999960899353,0.2944999933242798,0.7440999746322632
1702338742372336600,0.932336669921875,-1.0748000144958496,0.5277999639511108,0.5906000137329102
1702338742472355600,1.03235546875,0.23240000009536743,0.9285999536514282,0.18629999458789825
1702338742572340000,1.132340087890625,2.2744998931884766,-1.2482999563217163,3.965399980545044
1702338742672357000,1.232357177734375,-0.1858000010251999,0.1673000007867813,1.3818999528884888
1702338742772343000,1.332343017578125,-1.6222999095916748,-0.21059998869895935,3.561800003051758
1702338742872377300,1.43237744140625,0.12759999930858612,0.24729999899864197,-1.1632999181747437
1702338742972346000,1.53234619140625,-0.5253999829292297,1.4616999626159668,-2.547799825668335
1702338743072332000,1.63233203125,2.5088000297546387,0.02319999970495701,-0.7791000008583069
1702338743172349200,1.73234912109375,1.5972999334335327,0.1013999953866005,-0.7023999691009521
1702338743272335000,1.832335205078125,2.0690999031066895,0.017799999564886093,-0.4071999788284302
1702338743372352300,1.932352294921875,-1.393399953842163,1.677899956703186,0.44609999656677246
1702338743472355600,2.03235546875,3.7465999126434326,-0.8259999752044678,-0.29109999537467957
1702338743572357000,2.132357177734375,1.6484999656677246,0.41279998421669006,-0.9980999827384949
1702338743672341500,2.232341552734375,-0.02589999884366989,0.5805999636650085,-0.47360000014305115
1702338743772358700,2.332358642578125,-0.1922999918460846,0.9375999569892883,0.6412000060081482
1702338743872346000,2.43234619140625,0.5047999620437622,0.9513999819755554,0.8855999708175659
1702338743972361700,2.53236181640625,0.40799999237060547,0.43639999628067017,-1.0579999685287476
1702338744072364800,2.63236474609375,0.45739999413490295,-0.6291999816894531,0.7544999718666077
1702338744172333600,2.73233349609375,0.3304999768733978,-0.9235999584197998,0.6948999762535095
1702338744272350700,2.832350830078125,0.6592000126838684,0.00699999975040555,-0.5458999872207642
1702338744379113700,2.93911376953125,0.2465999871492386,-0.7642999887466431,1.1240999698638916
1702338744475677000,3.035677001953125,0.9917999505996704,-0.9285999536514282,-0.555400013923645
1702338744575679500,3.135679443359375,1.0190999507904053,1.1376999616622925,0.8333999514579773
1702338744675704300,3.235704345703125,0.840499997138977,-1.4358999729156494,2.2077999114990234
1702338744775684000,3.33568408203125,0.6051999926567078,-1.0116000175476074,-0.7195999622344971
1702338744875678000,3.435677978515625,-3.322000026702881,1.2723000049591064,-0.840499997138977
1702338744975665400,3.53566552734375,3.476799964904785,0.08540000021457672,-1.7818999290466309
1702338745075658000,3.635657958984375,-0.8676999807357788,-0.6460999846458435,-1.309999942779541
1702338745176045600,3.736045654296875,3.942999839782715,-0.1127999946475029,-2.6054999828338623
1702338745275652900,3.83565283203125,0.8807999491691589,-1.503499984741211,-2.057499885559082
1702338745375676000,3.935676025390625,1.3466999530792236,1.2350999116897583,-1.2635999917984009
1702338745475851800,4.035851806640625,-1.2513999938964844,0.5583999752998352,-3.1908998489379883
1702338745575869000,4.135868896484375,-0.7436999678611755,-1.056399941444397,1.6486999988555908
1702338745675858700,4.235858642578125,-2.506999969482422,-0.2825999855995178,5.1529998779296875
1702338745775701800,4.33570166015625,-0.9419999718666077,-1.2175999879837036,5.53879976272583
1702338745875685600,4.435685546875,-3.0401999950408936,-2.3713998794555664,0.35169997811317444
1702338745975720000,4.535719970703125,-2.2072999477386475,-0.873199999332428,1.934999942779541
1702338746075860200,4.635860107421875,-3.776700019836426,-0.25,-2.7610998153686523
1702338746175677000,4.735677001953125,3.401399850845337,-0.0608999989926815,-3.3884999752044678
1702338746275691500,4.83569140625,0.9009999632835388,0.2529999911785126,-0.8762999773025513
1702338746375969000,4.935968994140625,0.5691999793052673,1.2325999736785889,-3.635499954223633
1702338746475747600,5.03574755859375,0.40789997577667236,-0.3813999891281128,0.7358999848365784
1702338746575791400,5.135791259765625,1.2486000061035156,0.1453000009059906,1.8429999351501465
1702338746675692500,5.235692626953125,0.8675999641418457,-0.7152000069618225,0.47689998149871826
1702338746775676000,5.335676025390625,0.5701000094413757,0.085999995470047,-0.005499999970197678
1702338746875671000,5.435671142578125,0.16439999639987946,-0.4269999861717224,-0.09519999474287033
1702338746975918600,5.535918701171875,0.41200000047683716,0.007400000002235174,-0.4327999949455261
1702338747075657000,5.635656982421875,0.36789998412132263,-0.7059999704360962,-0.03659999743103981
1702338747175653400,5.7356533203125,0.28790000081062317,-0.11679999530315399,-0.051500000059604645
1702338747275634700,5.835634765625,1.0367000102996826,-0.25929999351501465,1.0293999910354614
1702338747375612200,5.935612060546875,1.7117999792099,1.52239990234375,-1.3316999673843384
1702338747475655000,6.035655029296875,0.4748999774456024,0.1761000007390976,-0.40230000019073486
1702338747575880400,6.13588037109375,0.5525999665260315,-0.37880000472068787,0.031300000846385956
1702338747675851800,6.235851806640625,0.17870000004768372,-0.27789998054504395,-0.2798999845981598
1702338747775663900,6.335663818359375,0.7555999755859375,0.039400000125169754,-0.5095999836921692
1702338747875646700,6.435646728515625,0.3726999759674072,-0.40070000290870667,0.08959999680519104
1702338747975771600,6.535771728515625,0.16749998927116394,-0.5059999823570251,0.20639999210834503
1702338748076089300,6.63608935546875,0.13130000233650208,-0.3174999952316284,0.6520999670028687
1702338748175777800,6.73577783203125,0.7372999787330627,2.065500020980835,-1.1334999799728394
1702338748275900200,6.835900146484375,1.01010000705719,0.7037000060081482,-1.5683999061584473
1702338748375657000,6.935656982421875,0.9139999747276306,-0.7938999533653259,0.7091999650001526
1702338748475858200,7.035858154296875,0.6467999815940857,-0.029899999499320984,-0.38999998569488525
1702338748575752400,7.13575244140625,2.3778998851776123,1.438599944114685,-0.11909999698400497
1702338748675777300,7.23577734375,1.9950999021530151,1.1409000158309937,0.1678999960422516
1702338748775754500,7.33575439453125,0.6093999743461609,0.7342999577522278,-0.33789998292922974
1702338748875852800,7.435852783203125,1.042199969291687,-0.6552000045776367,-1.7317999601364136
1702338748975668000,7.53566796875,-1.1009999513626099,0.06069999933242798,-3.0600998401641846
1702338749075700200,7.6357001953125,0.6434000134468079,0.632099986076355,-2.7064998149871826
1702338749175668500,7.73566845703125,0.05979999899864197,0.7626000046730042,0.010999999940395355
1702338749275670500,7.83567041015625,-1.1444000005722046,1.270799994468689,-1.43149995803833
1702338749375676000,7.935676025390625,0.6884999871253967,-0.08720000088214874,-0.23759999871253967
1702338749475843000,8.035843017578125,0.723800003528595,-0.6381999850273132,0.9991999864578247
1702338749575828000,8.135827880859376,0.6103000044822693,-0.6711999773979187,1.5575999021530151
1702338749675679500,8.235679443359375,0.6894999742507935,-1.6775000095367432,0.6111999750137329
1702338749775697700,8.33569775390625,1.7493999004364014,-1.3931000232696533,0.6581999659538269
1702338749875708700,8.435708740234375,0.011599999852478504,0.6941999793052673,0.8758999705314636
1702338749975787800,8.535787841796875,14.999499320983887,-0.5925999879837036,2.4674999713897705
1702338750075683000,8.63568310546875,0.8093999624252319,0.6294999718666077,0.5986999869346619
1702338750176055000,8.736054931640625,0.6398000121116638,0.5349999666213989,0.4269999861717224
1702338750275652400,8.83565234375,0.250900000333786,0.3928999900817871,0.0616999976336956
1702338750376188200,8.936188232421875,0.7085999846458435,0.16189999878406525,-0.04389999806880951
1702338750476244000,9.036243896484375,0.6194999814033508,0.0616999976336956,-0.029999999329447746
1702338750575672000,9.135672119140626,0.618399977684021,0.0279999990016222,0.0044999998062849045
1702338750675709200,9.235709228515624,0.6085999608039856,0.0011999999405816197,-0.008599999360740185
1702338750775926300,9.33592626953125,0.6085999608039856,-0.0005999999702908099,0.013899999670684338
1702338750875671600,9.435671630859375,0.5986999869346619,0.008899999782443047,0.005799999926239252
1702338750975643000,9.535642822265626,0.6182999610900879,-0.01249999925494194,0.007699999958276749
1702338751075659500,9.635659423828125,0.6182999610900879,-0.002699999837204814,0.008100000210106373
1702338751175655000,9.735655029296876,0.5888999700546265,0.01599999889731407,0.00989999994635582
1702338751275662800,9.835662841796875,0.5986999869346619,0.006599999964237213,0.0007999999797903001
1702338751375870000,9.935869873046874,0.5888999700546265,-0.0018999999156221747,0.010999999940395355
1702338751475666400,10.03566650390625,0.6085000038146973,0.007999999448657036,0.010599999688565731
1702338751576113200,10.136113037109375,0.6085000038146973,-0.020499998703598976,0.010599999688565731
1702338751675897600,10.235897705078125,0.5888999700546265,0.01889999955892563,0.009099999442696571
1702338751776324600,10.33632470703125,0.6182999610900879,0.0004999999655410647,-0.0009999999310821295
1702338751875842000,10.435842041015626,0.5888999700546265,-0.017999999225139618,0.007999999448657036
1702338751975665000,10.535664794921875,0.6182999610900879,0.002300000051036477,-0.0005999999702908099
1702338752075870000,10.635869873046875,0.6085000038146973,-0.0050999997183680534,0.009499999694526196
1702338752175646200,10.735646240234376,0.6182999610900879,-0.004900000058114529,0.029500000178813934
1702338752275678000,10.835677978515625,0.5986999869346619,-0.014299999922513962,0.009099999442696571
1702338752375815000,10.93581494140625,0.5986999869346619,0.013599999248981476,0.010599999688565731
1702338752475697200,11.035697265625,0.5791000127792358,0.012899999506771564,0.009099999442696571
1702338752575633700,11.135633544921875,0.5791000127792358,-0.007699999958276749,-0.00019999999494757503
1702338752675869000,11.235868896484375,0.5791000127792358,0.0038999998942017555,0.007999999448657036
1702338752775918000,11.33591796875,0.5986999869346619,0.003700000001117587,0.017400000244379044
1702338752875821600,11.435821533203125,0.618399977684021,0.016200000420212746,-0.0038999998942017555
1702338752975635200,11.53563525390625,0.5692999958992004,0.01730000041425228,0.005399999674409628
1702338753075745000,11.6357451171875,0.5986999869346619,0.02539999969303608,-0.00279999990016222
1702338753175833000,11.7358330078125,0.5986999869346619,0.01249999925494194,-0.018699999898672104
1702338753275666000,11.835666015625,0.5986999869346619,-0.01719999872148037,0.010599999688565731
1702338753375853300,11.935853271484374,0.6085000038146973,-0.008799999952316284,0.003000000026077032
1702338753475676400,12.035676513671875,0.6182999610900879,0.009099999442696571,0.004100000020116568
1702338753575766500,12.1357666015625,0.6182999610900879,-0.0009999999310821295,0.004900000058114529
1702338753675640800,12.235640869140624,0.6085000038146973,-0.00019999999494757503,0.0044999998062849045
1702338753775658500,12.335658447265626,0.6083999872207642,-0.0023999998811632395,-0.0032999999821186066
1702338753875798300,12.43579833984375,0.5888000130653381,-0.010699999518692493,-0.004799999762326479
1702338753976394500,12.53639453125,0.5888000130653381,0.008100000210106373,0.005699999630451202
1702338754075680000,12.635679931640626,0.6280999779701233,0.007699999958276749,0.004900000058114529
1702338754175660500,12.73566064453125,0.5985999703407288,0.008100000210106373,0.004600000102072954
1702338754276086800,12.836086669921874,0.6182999610900879,-0.00930000003427267,0.0044999998062849045
1702338754375866400,12.935866455078125,0.6182000041007996,0.025499999523162842,0.0071000000461936
1702338754475676400,13.035676513671875,0.6083999872207642,-0.002899999963119626,0.005699999630451202
1702338754575674600,13.135674560546875,0.5888000130653381,-0.011399999260902405,0.004900000058114529
1702338754675686700,13.235686767578125,0.6182000041007996,-0.020999999716877937,0.0052999998442828655
1702338754775677400,13.335677490234374,0.5888000130653381,0.007999999448657036,-0.003700000001117587
1702338754875765200,13.43576513671875,0.5789999961853027,-0.008200000040233135,0.0044999998062849045
1702338754975881000,13.535880859375,0.5986999869346619,-0.017899999395012856,0.013599999248981476
1702338755075774200,13.635774169921875,0.5789999961853027,0.011799999512732029,0.013599999248981476
1702338755176260600,13.736260498046875,0.5986999869346619,0.0023999998811632395,0.01249999925494194
1702338755275946000,13.835946044921876,0.5986999869346619,-0.015799999237060547,0.011699999682605267
1702338755376266000,13.936265869140625,0.5692999958992004,0.004100000020116568,0.010900000110268593
1702338755475664000,14.035663818359374,0.6085000038146973,0.024899998679757118,0.001500000013038516
1702338755575728400,14.135728271484375,0.5692999958992004,-0.02329999953508377,0.011299999430775642
1702338755676179500,14.236179443359376,0.6182999610900879,-0.004699999932199717,0.012000000104308128
1702338755775694000,14.335694091796874,0.6085000038146973,-0.024899998679757118,0.0018999999156221747
1702338755875929300,14.435929443359376,0.5986999869346619,-0.0142000000923872,0.011699999682605267
1702338755975657000,14.535656982421875,0.5791000127792358,-0.0050999997183680534,0.012799999676644802
1702338756075883000,14.635883056640624,0.5299999713897705,0.0038999998942017555,0.022599998861551285
1702338756176356000,14.736356201171875,0.6280999779701233,0.004999999888241291,-0.006000000052154064
1702338756276196000,14.836196044921875,0.6085000038146973,-0.006599999964237213,0.00559999980032444
1702338756375938800,14.935938720703126,0.6085000038146973,-0.0058999997563660145,0.014299999922513962
1702338756476114400,15.036114501953126,0.6182999610900879,-0.0050999997183680534,0.014999999664723873
1702338756575661800,15.135661865234376,0.5691999793052673,-0.013799999840557575,0.014299999922513962
1702338756675879000,15.23587890625,0.5791000127792358,-0.013899999670684338,-0.0066999997943639755
1702338756776212200,15.336212158203125,0.5888999700546265,0.015099999494850636,0.001500000013038516
1702338756875889400,15.435889404296875,0.6280999779701233,-0.014999999664723873,-0.015399999916553497
1702338756975828000,15.535827880859374,0.5791000127792358,-0.015699999406933784,0.0026000000070780516
1702338757075760600,15.6357607421875,0.5888999700546265,0.002699999837204814,0.004100000020116568
1702338757175690200,15.735690185546876,0.6083999872207642,0.010199999436736107,-0.0044999998062849045
1702338757275675600,15.835675537109376,0.6085000038146973,-0.018699999898672104,0.014699999243021011
1702338757375689200,15.935689208984375,0.6280999779701233,-0.0011999999405816197,0.0037999998312443495
1702338757475678000,16.035677978515626,0.5593999624252319,-0.010099999606609344,0.023000000044703484
1702338757575666000,16.135666015625,0.5985999703407288,0.028699999675154686,-0.014999999664723873
1702338757675675100,16.235675048828124,0.5888999700546265,-0.01719999872148037,0.013199999928474426
1702338757775880400,16.33588037109375,0.6085000038146973,-0.01730000041425228,0.013199999928474426
1702338757875822000,16.435822021484373,0.5791000127792358,0.0015999999595806003,0.012399999424815178
1702338757975663900,16.535663818359374,0.6085000038146973,0.0018999999156221747,0.01209999993443489
1702338758075651800,16.63565185546875,0.6085000038146973,-0.016699999570846558,0.010999999940395355
1702338758175674600,16.735674560546876,0.5986999869346619,-0.015799999237060547,0.011299999430775642
1702338758275647700,16.835647705078124,0.5888999700546265,0.00559999980032444,0.0018999999156221747
1702338758376004900,16.9360048828125,0.5888999700546265,0.006799999624490738,-0.006799999624490738
1702338758475687700,17.035687744140624,0.5888999700546265,-0.0031999999191612005,0.005200000014156103
1702338758576540000,17.136539794921877,0.5791000127792358,0.007199999876320362,0.004399999976158142
1702338758675655000,17.235655029296876,0.6378999948501587,0.004900000058114529,0.013199999928474426
1702338758775675600,17.335675537109374,0.5986999869346619,-0.024000000208616257,0.013199999928474426
1702338758875661800,17.435661865234376,0.6085000038146973,0.02449999935925007,0.003700000001117587
1702338758975708200,17.535708251953125,0.5888999700546265,-0.00559999980032444,-0.007799999788403511
1702338759075658500,17.635658447265627,0.5986999869346619,-0.005200000014156103,0.001500000013038516
1702338759175932000,17.735931884765623,0.6182999610900879,-0.0058999997563660145,-0.007400000002235174
1702338759275662300,17.835662353515627,0.6378999948501587,0.0018999999156221747,0.003000000026077032
1702338759375790800,17.935790771484374,0.5986999869346619,-0.016099998727440834,0.011699999682605267
1702338759475672000,18.035672119140624,0.5888999700546265,0.004100000020116568,-0.016899999231100082
1702338759576738800,18.13673876953125,0.6182999610900879,0.003399999812245369,0.021900000050663948
1702338759675637800,18.2356376953125,0.6182999610900879,-0.024799998849630356,0.0210999995470047
1702338759775958500,18.33595849609375,0.5888999700546265,-0.005200000014156103,0.0011999999405816197
1702338759875644000,18.435643798828124,0.6085000038146973,0.013299999758601189,0.0007999999797903001
1702338759975655400,18.535655517578125,0.6085000038146973,0.01249999925494194,-0.008499999530613422
1702338760075697200,18.635697265625,0.5888000130653381,-0.008599999360740185,0.0037999998312443495
1702338760175667000,18.7356669921875,0.6083999872207642,0.010300000198185444,-0.013499999418854713
1702338760275953400,18.835953369140626,0.5985999703407288,0.008700000122189522,0.00559999980032444
1702338760375812900,18.935812744140627,0.6279999613761902,-0.0008999999845400453,0.016200000420212746
1702338760475973000,19.03597314453125,0.5888000130653381,-0.00989999994635582,0.006000000052154064
1702338760575685600,19.135685546875,0.5789999961853027,-0.01899999938905239,0.0139999995008111
1702338760676183000,19.23618310546875,0.6574999690055847,-0.010400000028312206,-0.0058999997563660145
1702338760775684600,19.3356845703125,0.5593999624252319,0.010199999436736107,0.014299999922513962
1702338760875659500,19.435659423828124,0.5789999961853027,0,0.004900000058114529
1702338760975828000,19.535827880859376,0.6083999872207642,-0.009999999776482582,0.004799999762326479
1702338761075703300,19.635703369140625,0.5789999961853027,-0.01899999938905239,0.003399999812245369
1702338761175695600,19.735695556640625,0.5986999869346619,-0.006899999920278788,0.002300000051036477
1702338761275633200,19.835633056640624,0.5986999869346619,-0.005499999970197678,0.010599999688565731
1702338761375769600,19.93576953125,0.5692999958992004,0.005399999674409628,-0.00029999998514540493
1702338761475664400,20.035664306640626,0.6378999948501587,0.0037999998312443495,0.009399999864399433
1702338761576247600,20.13624755859375,0.559499979019165,0.0016999999061226845,0.019999999552965164
1702338761675939800,20.23593994140625,0.6182999610900879,-0.018199998885393143,0.0010999999940395355
1702338761775689200,20.335689208984373,0.5986999869346619,-0.009499999694526196,0.0010999999940395355
1702338761875803000,20.435802978515625,0.5888999700546265,0.010699999518692493,0.010900000110268593
1702338761975657000,20.535656982421877,0.6085000038146973,-0.0071000000461936,0.011299999430775642
1702338762075718400,20.635718505859376,0.5791000127792358,-0.014999999664723873,0.003000000026077032
1702338762176054000,20.736053955078123,0.5888999700546265,-0.005499999970197678,-0.006300000008195639
1702338762275973600,20.8359736328125,0.5888999700546265,-0.0142000000923872,-0.014999999664723873
1702338762375672600,20.935672607421875,0.5985999703407288,0.023399999365210533,-0.02149999886751175
1702338762475942000,21.03594189453125,0.6083999872207642,-0.015099999494850636,0.017999999225139618
1702338762575680500,21.135680419921876,0.5985999703407288,0.012600000016391277,0.018299998715519905
1702338762675652900,21.23565283203125,0.6083999872207642,0.013299999758601189,-0.011699999682605267
1702338762775650800,21.33565087890625,0.5888000130653381,0.010599999688565731,-0.03099999949336052
1702338762875879000,21.43587890625,0.5986999869346619,-0.02579999901354313,0.0142000000923872
1702338762975646200,21.535646240234374,0.5888000130653381,-0.008899999782443047,0.02319999970495701
1702338763075929900,21.635929931640625,0.5986999869346619,0.003000000026077032,0.01269999984651804
1702338763175654400,21.735654296875,0.5888999700546265,-0.006899999920278788,-0.006000000052154064
1702338763275671600,21.835671630859373,0.5791000127792358,0.003399999812245369,0.002199999988079071
1702338763375651300,21.9356513671875,0.5986999869346619,-0.008200000040233135,0.004100000020116568
1702338763475672000,22.035672119140624,0.5985999703407288,-0.01719999872148037,0.015699999406933784
1702338763575662800,22.135662841796876,0.5789999961853027,-0.006300000008195639,-0.012899999506771564
1702338763675937800,22.235937744140625,0.5985999703407288,-0.005499999970197678,-0.002699999837204814
1702338763776192000,22.33619189453125,0.6182000041007996,-0.004399999976158142,0.007799999788403511
1702338763875647700,22.435647705078125,0.5888000130653381,0.004600000102072954,0.006599999964237213
1702338763975694000,22.535694091796874,0.5691999793052673,-0.013899999670684338,-0.00419999985024333
1702338764076050700,22.63605078125,0.5789999961853027,-0.006300000008195639,0.005200000014156103
1702338764176277200,22.73627734375,0.5888000130653381,0.0026000000070780516,0.004799999762326479
1702338764276148200,22.836148193359374,0.5985999703407288,0.0015999999595806003,0.0066999997943639755
1702338764375669500,22.93566943359375,0.6083999872207642,0.010999999940395355,0.008200000040233135
1702338764475680500,23.035680419921874,0.5985999703407288,0.009599999524652958,0.008200000040233135
1702338764575666400,23.13566650390625,0.5985999703407288,0.009200000204145908,-0.010599999688565731
1702338764675690800,23.235690673828124,0.5691999793052673,-0.0011999999405816197,0.018799999728798866
1702338764775680500,23.335680419921875,0.5985999703407288,-0.02889999933540821,0.01759999990463257
1702338764875838200,23.435838134765625,0.5985999703407288,0.0008999999845400453,-0.010599999688565731
1702338764975697200,23.535697265625,0.5985999703407288,0,0.019099999219179153
1702338765076177400,23.636177490234374,0.5691999793052673,-0.009999999776482582,-0.0011999999405816197
1702338765176258000,23.736258056640626,0.6279999613761902,0.008799999952316284,-0.00009999999747378752
1702338765275673000,23.835673095703125,0.5888000130653381,-0.0016999999061226845,0.010799999348819256
1702338765375683000,23.93568310546875,0.5888000130653381,0.00839999970048666,-0.00009999999747378752
1702338765476138200,24.03613818359375,0.5985999703407288,-0.01939999870955944,0.01939999870955944
1702338765575682000,24.13568212890625,0.5985999703407288,-0.008799999952316284,0.009999999776482582
1702338765675739400,24.235739501953127,0.5985999703407288,0.0010999999940395355,-0.00009999999747378752
1702338765775690200,24.335690185546873,0.5888000130653381,-0.00839999970048666,0.01759999990463257
1702338765875646700,24.435646728515625,0.6083999872207642,0.0011999999405816197,0.016499999910593033
1702338765975681000,24.535680908203126,0.5888000130653381,-0.00019999999494757503,0.0058999997563660145
1702338766076232400,24.636232421875,0.5789999961853027,-0.01899999938905239,0.00699999975040555
1702338766175893000,24.73589306640625,0.6280999779701233,0.0011999999405816197,0.005499999970197678
1702338766275679500,24.835679443359375,0.5789999961853027,0.0011999999405816197,-0.003399999812245369
1702338766376141300,24.936141357421874,0.5888000130653381,0.0016999999061226845,-0.0011999999405816197
1702338766475688700,25.035688720703124,0.5691999793052673,-0.006599999964237213,0.009200000204145908
1702338766575671600,25.135671630859374,0.5985999703407288,0.013599999248981476,0.007400000002235174
1702338766675850200,25.235850341796876,0.5789999961853027,-0.005200000014156103,0.007699999958276749
1702338766775671600,25.335671630859373,0.5888000130653381,-0.01489999983459711,-0.002699999837204814
1702338766875657500,25.435657470703124,0.5985999703407288,0.012999999336898327,0.0058999997563660145
1702338766975684000,25.53568408203125,0.6085000038146973,0.013399999588727951,0.005200000014156103
1702338767075697700,25.63569775390625,0.6182999610900879,0.0011999999405816197,0.005499999970197678
1702338767175646700,25.735646728515626,0.5789999961853027,0.0008999999845400453,0.00559999980032444
1702338767275848200,25.83584814453125,0.6083999872207642,0.008799999952316284,0.006000000052154064
1702338767376194600,25.936194580078126,0.5789999961853027,-0.00039999998989515007,0.00559999980032444
1702338767475673600,26.035673583984376,0.5888000130653381,-0.02159999869763851,0.016099998727440834
1702338767575868000,26.135867919921875,0.5888000130653381,-0.02879999950528145,0.006300000008195639
1702338767675874300,26.235874267578126,0.5888000130653381,0.0008999999845400453,0.0066999997943639755
1702338767775980000,26.33597998046875,0.5691999793052673,-0.025499999523162842,-0.002300000051036477
1702338767875643400,26.435643310546876,0.5985999703407288,0.004900000058114529,0.01719999872148037
1702338767975693600,26.535693603515625,0.5789999961853027,0.0066999997943639755,0.0058999997563660145
1702338768076098000,26.63609814453125,0.5888999700546265,-0.03150000050663948,0.005799999926239252
1702338768175943400,26.735943359375,0.5691999793052673,0.007499999832361937,0.005499999970197678
1702338768275644000,26.835643798828126,0.5986999869346619,0.0066999997943639755,-0.023799998685717583
1702338768375872800,26.935872802734377,0.5888999700546265,0.0071000000461936,-0.014399999752640724
1702338768475656000,27.035656005859376,0.6085000038146973,-0.013100000098347664,0.025499999523162842
1702338768575693000,27.135693115234375,0.5789999961853027,-0.005499999970197678,0.016099998727440834
1702338768675704800,27.235704833984375,0.6182999610900879,0.003499999875202775,-0.003399999812245369
1702338768775926800,27.3359267578125,0.5986999869346619,0.010900000110268593,0.004399999976158142
1702338768875933700,27.43593359375,0.5986999869346619,-0.018400000408291817,0.004399999976158142
1702338768975646200,27.535646240234374,0.6085000038146973,-0.007699999958276749,0.0044999998062849045
1702338769075688200,27.635688232421874,0.5791000127792358,-0.01599999889731407,0.02290000021457672
1702338769176214300,27.73621435546875,0.6085000038146973,-0.01640000008046627,0.02329999953508377
1702338769275995600,27.83599560546875,0.7358999848365784,-0.03449999913573265,-0.049799997359514236
1702338769375947800,27.93594775390625,0.47110000252723694,0.02199999988079071,0.006300000008195639
1702338769475924200,28.03592431640625,0.5299999713897705,-0.007899999618530273,0.025599999353289604
1702338769575684000,28.13568408203125,0.5691999793052673,0.0007999999797903001,-0.0018999999156221747
1702338769676019000,28.23601904296875,0.6182000041007996,-0.007799999788403511,-0.0018999999156221747
1702338769775964400,28.33596435546875,0.5888000130653381,0.011799999512732029,0.024399999529123306
1702338769875638800,28.435638671875,0.5299999713897705,0.01249999925494194,0.007400000002235174
1702338769975684000,28.53568408203125,0.5888000130653381,0.011399999260902405,-0.002300000051036477
1702338770075845600,28.635845703125,0.6083999872207642,-0.008100000210106373,0.01640000008046627
1702338770175941400,28.73594140625,0.6182000041007996,0.0004999999655410647,0.007400000002235174
1702338770276165400,28.836165283203126,0.6083999872207642,0.0011999999405816197,0.006300000008195639
1702338770375669000,28.9356689453125,0.6083999872207642,0.010699999518692493,0.006300000008195639
1702338770476461300,29.03646142578125,0.5496000051498413,0.002699999837204814,0.00699999975040555
1702338770576206000,29.1362060546875,0.5789999961853027,-0.02579999901354313,-0.003000000026077032
1702338770675867000,29.235866943359376,0.6574999690055847,-0.006099999882280827,-0.003700000001117587
1702338770775676400,29.335676513671874,0.6182999610900879,-0.0050999997183680534,0.00559999980032444
1702338770875661800,29.435661865234376,0.5789999961853027,0.02449999935925007,-0.01209999993443489
1702338770975753500,29.53575341796875,0.5789999961853027,-0.015399999916553497,0.007400000002235174
1702338771075660000,29.635659912109375,0.5789999961853027,-0.0058999997563660145,0.0066999997943639755
1702338771175643000,29.735642822265625,0.5985999703407288,-0.0050999997183680534,-0.022699998691678047
1702338771276074800,29.83607470703125,0.5888000130653381,0.003399999812245369,-0.012199999764561653
1702338771375646700,29.935646728515625,0.6083999872207642,0.0030999998562037945,-0.011699999682605267
1702338771475637800,30.0356376953125,0.6083999872207642,0.0015999999595806003,0.017899999395012856
1702338771575650800,30.13565087890625,0.6182000041007996,-0.0005999999702908099,-0.00839999970048666
1702338771675635700,30.2356357421875,0.5888000130653381,0.008999999612569809,0.001999999862164259
1702338771775663900,30.335663818359375,0.5789999961853027,-0.009599999524652958,0.012600000016391277
1702338771875649300,30.435649169921874,0.5789999961853027,-0.007999999448657036,0.021299999207258224
1702338771976785700,30.53678564453125,0.5888000130653381,0.012199999764561653,-0.0072999997064471245
1702338772076330000,30.636330078125,0.5985999703407288,0.012799999676644802,0.009599999524652958
1702338772175701200,30.735701171875,0.5888000130653381,0.003499999875202775,-0.0018999999156221747
1702338772276064300,30.836064208984375,0.6377999782562256,0.0008999999845400453,-0.011799999512732029
1702338772376160300,30.93616015625,0.6279999613761902,-0.008899999782443047,-0.0018999999156221747
1702338772476123100,31.036123046875,0.5789999961853027,0.00039999998989515007,0.0058999997563660145
1702338772575954400,31.135954345703126,0.5888000130653381,0.010300000198185444,0.0071000000461936
1702338772676397000,31.23639697265625,0.5985999703407288,0.009499999694526196,-0.010900000110268593
1702338772775888000,31.335887939453126,0.5888000130653381,-0.009499999694526196,-0.010999999940395355
1702338772875656400,31.435656494140623,0.5985999703407288,-0.010499999858438969,0.01719999872148037
1702338772975714300,31.53571435546875,0.5888000130653381,0.008799999952316284,0.018699999898672104
1702338773075655400,31.635655517578126,0.5888000130653381,-0.01939999870955944,0.019099999219179153
1702338773175647200,31.735647216796874,0.6083999872207642,-0.008499999530613422,-0.00009999999747378752
1702338773276170000,31.836169921875,0.6083999872207642,-0.008200000040233135,0.017999999225139618
1702338773375658500,31.935658447265624,0.5888000130653381,0.0010999999940395355,0.009599999524652958
1702338773475641300,32.03564135742187,0.6083999872207642,0.001500000013038516,0.008499999530613422
1702338773575650800,32.13565087890625,0.5985999703407288,-0.00989999994635582,-0.002300000051036477
1702338773675645400,32.2356455078125,0.5985999703407288,0.0072999997064471245,0.00699999975040555
1702338773775702300,32.33570239257813,0.5789999961853027,-0.002699999837204814,0.008200000040233135
1702338773875918600,32.43591870117187,0.6083999872207642,-0.002099999925121665,0.006000000052154064
1702338773975965400,32.53596533203125,0.5985999703407288,-0.0023999998811632395,0.016099998727440834
1702338774075652900,32.63565283203125,0.6083999872207642,-0.019099999219179153,0.015799999237060547
1702338774175690800,32.735690673828124,0.6182999610900879,0.0023999998811632395,-0.004799999762326479
1702338774275687700,32.83568774414063,0.5985999703407288,-0.0066999997943639755,-0.013499999418854713
1702338774375665000,32.93566479492188,0.6083999872207642,-0.004799999762326479,0.016899999231100082
1702338774475956500,33.03595654296875,0.5986999869346619,-0.011899999342858791,-0.012799999676644802
1702338774575634700,33.135634765625,0.6083999872207642,-0.004100000020116568,0.007799999788403511
1702338774675650800,33.23565087890625,0.6083999872207642,0.013199999928474426,0.00019999999494757503
1702338774775642400,33.335642333984374,0.6083999872207642,0.012600000016391277,-0.010199999436736107
1702338774875648800,33.43564868164062,0.5888000130653381,-0.00699999975040555,0.00930000003427267
1702338774975645400,33.5356455078125,0.5888000130653381,0.00989999994635582,0.019500000402331352
1702338775075939800,33.63593994140625,0.5985999703407288,-0.009200000204145908,0.00969999935477972
1702338775175650800,33.73565087890625,0.5789999961853027,0.00279999990016222,-0.0011999999405816197
1702338775275716400,33.83571630859375,0.5888000130653381,-0.006199999712407589,-0.0015999999595806003
1702338775375967000,33.93596704101562,0.6083999872207642,0.009499999694526196,0.018400000408291817
1702338775476554000,34.036553955078126,0.6083999872207642,0.00699999975040555,-0.009800000116229057
1702338775575680500,34.135680419921876,0.6083999872207642,-0.012199999764561653,0.018400000408291817
1702338775675845600,34.235845703125,0.6083999872207642,0.02279999852180481,-0.019199999049305916
1702338775775656000,34.33565600585938,0.5299000144004822,-0.0066999997943639755,-0.01889999955892563
1702338775875708700,34.435708740234375,0.5888000130653381,-0.014699999243021011,0.00019999999494757503
1702338775975653400,34.5356533203125,0.5789999961853027,0.015599999576807022,0.00019999999494757503
1702338776075662800,34.63566284179687,0.5789999961853027,-0.004999999888241291,0.0016999999061226845
1702338776175694600,34.735694580078125,0.5789999961853027,-0.011399999260902405,0.010699999518692493
1702338776275710700,34.835710693359374,0.5985999703407288,-0.01979999989271164,0.018699999898672104
1702338776376263700,34.936263671875,0.5888000130653381,-0.02850000001490116,0.018699999898672104
1702338776475688700,35.03568872070313,0.6083999872207642,-0.006300000008195639,0.01759999990463257
1702338776575662300,35.13566235351563,0.5789999961853027,0.004999999888241291,0.00699999975040555
1702338776675671600,35.23567163085937,0.6085000038146973,-0.005200000014156103,0.0058999997563660145
1702338776775672600,35.33567260742188,0.5985999703407288,0.0030999998562037945,-0.002300000051036477
1702338776875657500,35.43565747070313,0.5985999703407288,0.001999999862164259,0.024699999019503593
1702338776975927300,35.53592724609375,0.5789999961853027,0.002300000051036477,0.024799998849630356
1702338777076203800,35.636203857421876,0.5888000130653381,0.0004999999655410647,0.015399999916553497
1702338777175681000,35.73568090820312,0.5985999703407288,0.00039999998989515007,0.005499999970197678
1702338777275694000,35.835694091796874,0.6182999610900879,-0.009200000204145908,-0.004100000020116568
1702338777375691500,35.93569140625,0.6083999872207642,0.02879999950528145,-0.0007999999797903001
1702338777476186000,36.03618603515625,0.6083999872207642,-0.010699999518692493,-0.009099999442696571
1702338777575957500,36.13595751953125,0.6182000041007996,0.000699999975040555,-0.009499999694526196
1702338777675633700,36.235633544921875,0.5888000130653381,0.011799999512732029,-0.009099999442696571
1702338777775949300,36.33594921875,0.6083999872207642,-0.007400000002235174,0.018699999898672104
1702338777875642400,36.435642333984376,0.6182000041007996,-0.0058999997563660145,0.007400000002235174
1702338777975657500,36.53565747070313,0.6085000038146973,-0.0066999997943639755,0.014999999664723873
1702338778075651300,36.6356513671875,0.5888000130653381,0.001999999862164259,0.014299999922513962
1702338778175692500,36.735692626953124,0.5986999869346619,-0.00699999975040555,0.013499999418854713
1702338778275681000,36.83568090820312,0.5789999961853027,-0.00839999970048666,0.003700000001117587
1702338778375872000,36.9358720703125,0.5888999700546265,0.001999999862164259,0.01209999993443489
1702338778475679000,37.035678955078126,0.5691999793052673,0.0026000000070780516,0.002899999963119626
1702338778575934700,37.13593481445312,0.5888999700546265,-0.03500000014901161,0.003700000001117587
1702338778675687200,37.235687255859375,0.5791000127792358,-0.0066999997943639755,0.012299999594688416
1702338778775672600,37.33567260742188,0.5692999958992004,-0.004799999762326479,0.003599999938160181
1702338778875919600,37.435919677734375,0.6085000038146973,-0.003999999724328518,0.014499999582767487
1702338778975873300,37.535873291015626,0.6085000038146973,-0.0142000000923872,0.024000000208616257
1702338779075660500,37.63566064453125,0.5692999958992004,-0.02290000021457672,0.01269999984651804
1702338779175677400,37.73567749023437,0.5888999700546265,-0.021399999037384987,0.013499999418854713
1702338779276150300,37.836150390625,0.5888999700546265,-0.0018999999156221747,0.002899999963119626
1702338779375682000,37.93568212890625,0.5986999869346619,-0.003700000001117587,0.0142000000923872
1702338779475641300,38.03564135742187,0.5791000127792358,-0.012399999424815178,0.005200000014156103
1702338779575826200,38.135826171875,0.6085000038146973,-0.014299999922513962,0.0058999997563660145
1702338779675670000,38.235669921875,0.5985999703407288,0.0037999998312443495,0.006300000008195639
1702338779775685000,38.33568505859375,0.6083999872207642,-0.0052999998442828655,-0.003399999812245369
1702338779879415300,38.439415283203125,0.6182999610900879,-0.02329999953508377,-0.0037999998312443495
1702338779975659000,38.53565893554688,0.6280999779701233,0.013199999928474426,0.02449999935925007
1702338780075645000,38.63564501953125,0.5789999961853027,0.00419999985024333,-0.004100000020116568
1702338780175664400,38.73566430664062,0.5985999703407288,-0.005499999970197678,0.015399999916553497
1702338780276554000,38.836553955078124,0.5888000130653381,0.021199999377131462,-0.002699999837204814
1702338780375713300,38.93571337890625,0.6279999613761902,0.010199999436736107,-0.011699999682605267
1702338780476375300,39.03637524414062,0.6083999872207642,0.0007999999797903001,0.009999999776482582
1702338780575678000,39.13567797851562,0.5691999793052673,0.00839999970048666,-0.00009999999747378752
1702338780675960600,39.235960693359374,0.5985999703407288,-0.009999999776482582,0.02850000001490116
1702338780775943000,39.33594287109375,0.5691999793052673,-0.01719999872148037,0.006300000008195639
1702338780876012800,39.4360126953125,0.5986999869346619,-0.006199999712407589,0.005200000014156103
1702338780975638800,39.535638671875,0.5888999700546265,0.00419999985024333,0.003700000001117587
1702338781075798300,39.63579833984375,0.5888999700546265,-0.0142000000923872,0.013199999928474426
1702338781175641900,39.73564184570313,0.5986999869346619,0.00279999990016222,-0.004900000058114529
1702338781275654400,39.835654296875,0.6083999872207642,0.000699999975040555,-0.003399999812245369
1702338781375653400,39.9356533203125,0.6378999948501587,-0.010799999348819256,0.006000000052154064
1702338781475953400,40.03595336914063,0.5985999703407288,0.007599999662488699,0.006000000052154064
1702338781575673000,40.135673095703126,0.6083999872207642,-0.0030999998562037945,0.006399999838322401
1702338781675675100,40.23567504882813,0.6182000041007996,-0.0005999999702908099,0.015399999916553497
1702338781775685000,40.33568505859375,0.6279999613761902,-0.0011999999405816197,-0.02070000022649765
1702338781875632600,40.435632568359374,0.5985999703407288,-0.009099999442696571,0.00930000003427267
1702338781975653400,40.5356533203125,0.5985999703407288,0.0007999999797903001,0.009999999776482582
1702338782075829000,40.6358291015625,0.5789999961853027,0.020399998873472214,-0.00009999999747378752
1702338782175713300,40.73571337890625,0.5985999703407288,0.00839999970048666,-0.00839999970048666
1702338782275898600,40.83589868164062,0.5985999703407288,0.009499999694526196,-0.0007999999797903001
1702338782375689700,40.93568969726562,0.5985999703407288,0.0064999996684491634,0.008499999530613422
1702338782475701800,41.03570166015625,0.6083999872207642,0.0064999996684491634,-0.019299998879432678
1702338782575635200,41.13563525390625,0.6182000041007996,0.01599999889731407,0.0023999998811632395
1702338782675786800,41.235786865234374,0.5985999703407288,-0.004699999932199717,0.03150000050663948
1702338782775758600,41.33575854492187,0.5985999703407288,0.004900000058114529,0.010099999606609344
1702338782875831600,41.43583154296875,0.5888000130653381,-0.0038999998942017555,0
1702338782975644000,41.535643798828126,0.6083999872207642,0.005699999630451202,-0.010199999436736107
1702338783075656400,41.635656494140626,0.5888000130653381,-0.004299999680370092,0.019500000402331352
1702338783175695600,41.73569555664063,0.6083999872207642,-0.011799999512732029,0.008499999530613422
1702338783275662300,41.83566235351562,0.6182000041007996,0.008200000040233135,0.019500000402331352
1702338783375641900,41.935641845703124,0.5691999793052673,-0.001999999862164259,0.0005999999702908099
1702338783475698700,42.03569873046875,0.6083999872207642,-0.0015999999595806003,0.00930000003427267
1702338783575722200,42.13572216796875,0.5691999793052673,-0.019299998879432678,-0.003000000026077032
1702338783675639300,42.235639404296876,0.5985999703407288,-0.00029999998514540493,0.01759999990463257
1702338783775664400,42.33566430664062,0.5888000130653381,0.009499999694526196,0.008499999530613422
1702338783875891000,42.43589086914063,0.5888000130653381,-0.008799999952316284,-0.0011999999405816197
1702338783975650300,42.535650390625,0.5789999961853027,0.010699999518692493,0.02850000001490116
1702338784075683600,42.63568359375,0.5691999793052673,0.019700000062584877,0.008899999782443047
1702338784176390000,42.736389892578124,0.6083999872207642,0,0.007799999788403511
1702338784275685000,42.83568505859375,0.6083999872207642,-0.009599999524652958,-0.003000000026077032
1702338784375693600,42.935693603515624,0.5985999703407288,-0.009399999864399433,0.006399999838322401
1702338784475673600,43.03567358398438,0.5888000130653381,-0.007400000002235174,-0.005200000014156103
1702338784575631600,43.13563159179687,0.6085000038146973,-0.005499999970197678,-0.014999999664723873
1702338784675644400,43.23564453125,0.5986999869346619,-0.014599999412894249,0.012799999676644802
1702338784775922700,43.33592260742188,0.5888999700546265,0.004999999888241291,0.003700000001117587
1702338784875648800,43.43564868164062,0.5791000127792358,0.0052999998442828655,0.012799999676644802
1702338784975638800,43.535638671875,0.6085000038146973,0.013100000098347664,-0.005200000014156103
1702338785075651800,43.63565185546875,0.5789999961853027,-0.006000000052154064,0.014299999922513962
1702338785175637800,43.7356376953125,0.6083999872207642,0.011399999260902405,0.006300000008195639
1702338785275656000,43.83565600585938,0.5789999961853027,-0.017500000074505806,0.0058999997563660145
1702338785376013300,43.93601342773437,0.5888000130653381,-0.016099998727440834,0.015399999916553497
1702338785475668000,44.03566796875,0.5888000130653381,-0.005499999970197678,0.005499999970197678
1702338785576229400,44.1362294921875,0.5985999703407288,-0.01640000008046627,0.015699999406933784
1702338785675671600,44.23567163085937,0.6182999610900879,-0.0058999997563660145,-0.003399999812245369
1702338785776419600,44.336419677734376,0.5888000130653381,0.0044999998062849045,-0.0030999998562037945
1702338785875639800,44.43563989257812,0.5789999961853027,0.00279999990016222,0.01719999872148037
1702338785976307500,44.536307373046874,0.5888000130653381,-0.006300000008195639,0.016499999910593033
1702338786075669500,44.63566943359375,0.5888000130653381,-0.006899999920278788,0.016099998727440834
1702338786175945000,44.73594506835938,0.5789999961853027,-0.006199999712407589,0.006000000052154064
1702338786276337200,44.83633715820312,0.5789999961853027,0.0015999999595806003,0.006300000008195639
1702338786376267500,44.936267578125,0.5789999961853027,0.019700000062584877,-0.003399999812245369
1702338786476110000,45.03611010742188,0.6083999872207642,0.008100000210106373,0.006300000008195639
1702338786575951400,45.13595141601562,0.5985999703407288,-0.011399999260902405,0.007400000002235174
1702338786675957000,45.23595703125,0.5789999961853027,-0.001999999862164259,0.016499999910593033
1702338786775669500,45.33566943359375,0.5985999703407288,0.00839999970048666,0.00699999975040555
1702338786875704300,45.43570434570312,0.6279999613761902,0.009499999694526196,0.007400000002235174
1702338786975758600,45.535758544921876,0.6083999872207642,0.00039999998989515007,-0.011299999430775642
1702338787075651300,45.6356513671875,0.5985999703407288,-0.00699999975040555,0.007799999788403511
1702338787176500200,45.73650024414062,0.5985999703407288,-0.00699999975040555,-0.0007999999797903001
1702338787276002300,45.83600219726563,0.6083999872207642,-0.014999999664723873,0.007400000002235174
1702338787375711200,45.93571118164063,0.5985999703407288,-0.003999999724328518,0.007799999788403511
1702338787475655400,46.03565551757813,0.5986999869346619,-0.021800000220537186,-0.003000000026077032
1702338787575647200,46.135647216796876,0.5985999703407288,0.014699999243021011,0.00699999975040555
1702338787675927300,46.23592724609375,0.6085000038146973,0.00559999980032444,0.006300000008195639
1702338787775657500,46.335657470703126,0.5789999961853027,-0.004399999976158142,0.007400000002235174
1702338787875637200,46.43563720703125,0.5986999869346619,0.004900000058114529,0.01529999915510416
1702338787975739000,46.53573876953125,0.6085000038146973,-0.006300000008195639,0.00559999980032444
1702338788076260600,46.63626049804687,0.5986999869346619,0.005399999674409628,0.014599999412894249
1702338788176163300,46.73616333007813,0.6085000038146973,0.004900000058114529,-0.00419999985024333
1702338788276124700,46.83612475585937,0.6085000038146973,-0.006599999964237213,0.005200000014156103
1702338788375697700,46.93569775390625,0.5691999793052673,-0.016999999061226845,0.024799998849630356
1702338788476174800,47.0361748046875,0.6085000038146973,-0.0072999997064471245,0.005499999970197678
1702338788575695000,47.135695068359375,0.5888000130653381,0.002699999837204814,-0.0037999998312443495
1702338788675967500,47.23596752929687,0.5985999703407288,0.01209999993443489,0.005200000014156103
1702338788775984600,47.335984619140625,0.5791000127792358,0.004600000102072954,0.013799999840557575
1702338788875657000,47.435656982421875,0.5789999961853027,0.005699999630451202,-0.023799998685717583
1702338788975649300,47.535649169921875,0.5789999961853027,0.0052999998442828655,0.005499999970197678
1702338789076216800,47.636216796875,0.5986999869346619,-0.014399999752640724,0.005200000014156103
1702338789175684600,47.7356845703125,0.6182999610900879,0.005699999630451202,-0.00419999985024333
1702338789276069000,47.83606909179687,0.5691999793052673,0.014699999243021011,0.01599999889731407
1702338789375681000,47.935680908203125,0.5985999703407288,-0.005499999970197678,0.0058999997563660145
1702338789475730400,48.03573046875,0.5789999961853027,-0.014499999582767487,0.006300000008195639
1702338789575664400,48.13566430664063,0.6182999610900879,0.0139999995008111,-0.0037999998312443495
1702338789675633200,48.23563305664062,0.5888999700546265,-0.003000000026077032,-0.00419999985024333
1702338789775884500,48.335884521484374,0.5789999961853027,-0.011599999852478504,0.005499999970197678
1702338789875809500,48.4358095703125,0.5692999958992004,-0.010199999436736107,0.01489999983459711
1702338789975647700,48.53564770507813,0.5791000127792358,0.019099999219179153,0.004399999976158142
1702338790075637200,48.63563720703125,0.5692999958992004,-0.009999999776482582,0.013499999418854713
1702338790175718000,48.7357177734375,0.5791000127792358,-0.00989999994635582,0.002899999963119626
1702338790275649800,48.83564990234375,0.5791000127792358,0.019999999552965164,0.012399999424815178
1702338790375695600,48.935695556640624,0.5791000127792358,-0.00969999935477972,0.012000000104308128
1702338790476126200,49.036126220703125,0.5692999958992004,0.008999999612569809,-0.016200000420212746
1702338790575664400,49.13566430664063,0.5692999958992004,0.010499999858438969,0.021800000220537186
1702338790675657500,49.235657470703124,0.5692999958992004,-0.008899999782443047,0.0024999999441206455
1702338790775640800,49.335640869140626,0.5986999869346619,-0.019500000402331352,0.01119999960064888
1702338790875704800,49.435704833984374,0.5888999700546265,0.0009999999310821295,0.011599999852478504
1702338790975645000,49.53564501953125,0.5888999700546265,-0.0071000000461936,0.008599999360740185
1702338791075947000,49.63594702148438,0.5986999869346619,0.0009999999310821295,0.011099999770522118
1702338791175959000,49.735958984375,0.5791000127792358,0.008299999870359898,0.00139999995008111
1702338791275650300,49.835650390625,0.5791000127792358,-0.0017999999690800905,-0.007199999876320362
1702338791375638800,49.935638671875,0.5692999958992004,-0.0032999999821186066,0.021699998527765274
1702338791475698200,50.0356982421875,0.5888999700546265,-0.004399999976158142,0.022499999031424522
1702338791575685000,50.13568505859375,0.5888999700546265,-0.01269999984651804,0.00139999995008111
1702338791675738400,50.23573828125,0.5791000127792358,-0.0024999999441206455,-0.007999999448657036
1702338791775972000,50.33597216796875,0.5692999958992004,-0.002099999925121665,0.010400000028312206
1702338791875634700,50.435634765625,0.5986999869346619,-0.0017999999690800905,-0.007899999618530273
1702338791975704800,50.535704833984376,0.559499979019165,-0.010099999606609344,-0.0064999996684491634
1702338792075650800,50.63565087890625,0.5986999869346619,0,0.003599999938160181
1702338792175950800,50.73595092773437,0.5791000127792358,0.00039999998989515007,0.0032999999821186066
1702338792275686100,50.83568603515625,0.5791000127792358,-0.00969999935477972,0.0142000000923872
1702338792376233000,50.93623291015625,0.5888999700546265,0.0005999999702908099,0.02369999885559082
1702338792475678500,51.035678466796874,0.5986999869346619,-0.000699999975040555,0.003700000001117587
1702338792575980500,51.13598046875,0.6182999610900879,0.026799999177455902,-0.004900000058114529
1702338792675655400,51.235655517578124,0.5888000130653381,-0.003599999938160181,0.006300000008195639
1702338792775633700,51.335633544921876,0.5789999961853027,-0.013499999418854713,0.0066999997943639755
1702338792875649300,51.435649169921874,0.5986999869346619,-0.014999999664723873,0.025100000202655792
1702338792975867000,51.53586694335937,0.5985999703407288,0.00279999990016222,-0.003000000026077032
1702338793075673000,51.635673095703126,0.5888000130653381,-0.027300000190734863,0.03500000014901161
1702338793175924200,51.73592431640625,0.6083999872207642,-0.008799999952316284,-0.003000000026077032
1702338793275687700,51.83568774414063,0.5691999793052673,-0.01939999870955944,0.00699999975040555
1702338793375942000,51.93594189453125,0.6083999872207642,0.0072999997064471245,-0.010699999518692493
1702338793476017400,52.036017333984375,0.6083999872207642,-0.018299998715519905,0.006300000008195639
1702338793575647700,52.13564770507813,0.5985999703407288,0.00039999998989515007,0.0066999997943639755
1702338793675626800,52.23562670898438,0.5986999869346619,0.010999999940395355,0.013899999670684338
1702338793775820000,52.335820068359375,0.5888999700546265,0.002300000051036477,-0.006399999838322401
1702338793875650800,52.43565087890625,0.5791000127792358,-0.0044999998062849045,0.02149999886751175
1702338793975683600,52.53568359375,0.5791000127792358,0.004600000102072954,0.012399999424815178
1702338794075993600,52.63599365234375,0.5888999700546265,-0.002899999963119626,0.013100000098347664
1702338794175683000,52.73568310546875,0.5888999700546265,-0.010099999606609344,0.01119999960064888
1702338794275671000,52.83567114257813,0.6182999610900879,-0.00969999935477972,0.010799999348819256
1702338794375881500,52.93588159179688,0.5888999700546265,0.00139999995008111,0.00969999935477972
1702338794475673600,53.03567358398438,0.5888999700546265,0,0.00029999998514540493
1702338794576185000,53.13618505859375,0.5986999869346619,0.008200000040233135,0.028599999845027924
1702338794675678000,53.235677978515625,0.6085000038146973,0.007599999662488699,0.010499999858438969
1702338794776145200,53.336145263671874,0.5888999700546265,0.006899999920278788,0.00039999998989515007
1702338794875749600,53.43574951171875,0.5986999869346619,0.0038999998942017555,0.0017999999690800905
1702338794975647700,53.53564770507813,0.5986999869346619,-0.005399999674409628,0.012000000104308128
1702338795075685000,53.63568505859375,0.5791000127792358,0.015099999494850636,0.0026000000070780516
1702338795175668500,53.73566845703125,0.5888999700546265,-0.01529999915510416,0.0024999999441206455
1702338795275690200,53.83569018554687,0.5888999700546265,-0.014499999582767487,-0.015799999237060547
1702338795376276200,53.93627612304687,0.5888999700546265,-0.021800000220537186,0.01269999984651804
1702338795475689700,54.035689697265624,0.5791000127792358,-0.00139999995008111,-0.006000000052154064
1702338795575679000,54.13567895507813,0.5791000127792358,0.008299999870359898,0.0024999999441206455
1702338795675950800,54.23595092773437,0.5692999958992004,0.007899999618530273,-0.005699999630451202
1702338795775899600,54.335899658203125,0.6280999779701233,-0.003000000026077032,0.003599999938160181
1702338795875639800,54.43563989257812,0.5888999700546265,-0.012999999336898327,-0.004900000058114529
1702338795975943000,54.53594287109375,0.5888999700546265,0.006399999838322401,-0.00559999980032444
1702338796075937800,54.63593774414063,0.6085000038146973,0.00559999980032444,0.006599999964237213
1702338796175687200,54.735687255859375,0.6182999610900879,-0.01269999984651804,0.005200000014156103
1702338796275977700,54.83597778320313,0.5888000130653381,0.015099999494850636,0.01529999915510416
1702338796375654000,54.93565380859375,0.5789999961853027,0.00419999985024333,0.006300000008195639
1702338796475887000,55.03588720703125,0.5888000130653381,-0.0050999997183680534,-0.0037999998312443495
1702338796575667500,55.13566748046875,0.5789999961853027,0.02410000003874302,0.0142000000923872
1702338796675686100,55.23568603515625,0.5691999793052673,-0.006199999712407589,0.004399999976158142
1702338796775829000,55.3358291015625,0.5985999703407288,-0.0050999997183680534,-0.013599999248981476
1702338796875824600,55.43582470703125,0.6083999872207642,0.021900000050663948,-0.0139999995008111
1702338796975640800,55.53564086914062,0.5985999703407288,-0.008499999530613422,-0.0018999999156221747
1702338797075666400,55.63566650390625,0.5888000130653381,0.009999999776482582,0.008599999360740185
1702338797175674600,55.735674560546876,0.5985999703407288,-0.01759999990463257,0.017999999225139618
1702338797276418600,55.83641845703125,0.6182000041007996,0.00989999994635582,0.01759999990463257
1702338797375670500,55.93567041015625,0.6083999872207642,0.0011999999405816197,0.007400000002235174
1702338797475862800,56.03586279296875,0.5888000130653381,-0.008499999530613422,0.016499999910593033
1702338797575946500,56.135946533203125,0.5985999703407288,0.0011999999405816197,0.006399999838322401
1702338797675633200,56.23563305664062,0.5985999703407288,-0.01979999989271164,-0.0018999999156221747
1702338797775650300,56.335650390625,0.5985999703407288,-0.009200000204145908,-0.003000000026077032
1702338797875874800,56.43587475585937,0.5985999703407288,0.00039999998989515007,0.007799999788403511
1702338797975655000,56.535655029296876,0.6182000041007996,-0.020600000396370888,0.017899999395012856
1702338798075636200,56.63563623046875,0.5985999703407288,-0.00139999995008111,0.019099999219179153
1702338798175846700,56.7358466796875,0.5888000130653381,-0.0008999999845400453,0.008499999530613422
1702338798275656400,56.83565649414062,0.5888000130653381,-0.019500000402331352,0.008899999782443047
1702338798375946000,56.93594604492188,0.5985999703407288,0.00009999999747378752,0.008100000210106373
1702338798475653400,57.0356533203125,0.6083999872207642,-0.007599999662488699,-0.002300000051036477
1702338798575914800,57.135914794921874,0.5789999961853027,0.0030999998562037945,0.016099998727440834
1702338798675893500,57.2358935546875,0.5985999703407288,-0.005799999926239252,0.006199999712407589
1702338798775983600,57.33598364257813,0.5789999961853027,-0.007699999958276749,0.006599999964237213
1702338798875652400,57.43565234375,0.5985999703407288,0.012600000016391277,0.00699999975040555
1702338798975915300,57.535915283203124,0.5888000130653381,0.0009999999310821295,0.00699999975040555
1702338799075756500,57.63575659179688,0.5789999961853027,0.011099999770522118,-0.0018999999156221747
1702338799175885600,57.735885498046876,0.5888000130653381,-0.021199999377131462,-0.0011999999405816197
1702338799275662300,57.83566235351562,0.5985999703407288,-0.017999999225139618,0.008100000210106373
1702338799375710200,57.935710205078124,0.5985999703407288,0.010599999688565731,0.008499999530613422
1702338799475671600,58.035671630859376,0.6182000041007996,0.011099999770522118,0.00019999999494757503
1702338799575938800,58.13593872070312,0.6083999872207642,0.00009999999747378752,0.0005999999702908099
1702338799675638800,58.235638671875,0.5789999961853027,0.019899999722838402,0.0009999999310821295
1702338799775657000,58.335656982421874,0.6279999613761902,-0.013299999758601189,0.011899999342858791
1702338799875634200,58.43563427734375,0.5985999703407288,-0.012199999764561653,0.001999999862164259
1702338799975656000,58.53565600585937,0.6083999872207642,-0.002099999925121665,0.00969999935477972
1702338800075640300,58.63564038085938,0.5985999703407288,-0.00139999995008111,0.00019999999494757503
1702338800175840300,58.73584033203125,0.5789999961853027,0.00019999999494757503,0.008499999530613422
1702338800275967500,58.83596752929687,0.5888000130653381,0.011799999512732029,-0.001999999862164259
1702338800375684000,58.93568408203125,0.6083999872207642,-0.017500000074505806,0.00699999975040555
1702338800475897600,59.03589770507813,0.5985999703407288,-0.008200000040233135,-0.010999999940395355
1702338800575689200,59.135689208984374,0.5985999703407288,-0.008100000210106373,-0.011399999260902405
1702338800675724300,59.235724365234375,0.5888000130653381,0.00009999999747378752,0.0004999999655410647
1702338800775845000,59.33584521484375,0.5789999961853027,0.008799999952316284,0.011099999770522118
1702338800875885000,59.43588500976563,0.5888000130653381,0.017099998891353607,0.010300000198185444
1702338800975628800,59.53562890625,0.5985999703407288,0.007400000002235174,0.007400000002235174
1702338801075646700,59.635646728515624,0.5691999793052673,-0.012199999764561653,0.006300000008195639
1702338801175749600,59.73574951171875,0.5888000130653381,0.008799999952316284,0.02329999953508377
1702338801275696600,59.83569653320313,0.5986999869346619,-0.00009999999747378752,0.012299999594688416
1702338801375901700,59.93590161132813,0.5888999700546265,0.010999999940395355,0.012399999424815178
1702338801475897600,60.03589770507813,0.5986999869346619,-0.0072999997064471245,0.004799999762326479
1702338801575656000,60.135656005859374,0.5789999961853027,0.002699999837204814,0.014499999582767487
1702338801675736800,60.23573681640625,0.5691999793052673,-0.02579999901354313,0.014999999664723873
1702338801775670000,60.335669921875,0.6085000038146973,0.003700000001117587,0.014599999412894249
1702338801875633700,60.43563354492188,0.5888000130653381,-0.005499999970197678,0.005499999970197678
1702338801975650300,60.535650390625,0.5986999869346619,-0.004399999976158142,0.004799999762326479
1702338802075920600,60.635920654296875,0.5691999793052673,0.0052999998442828655,0.0050999997183680534
1702338802175785700,60.73578564453125,0.6083999872207642,0.003399999812245369,-0.0030999998562037945
1702338802275637200,60.83563720703125,0.5985999703407288,0.004999999888241291,0.006599999964237213
1702338802375684000,60.93568408203125,0.6182000041007996,0.020800000056624413,0.0066999997943639755
1702338802476490800,61.03649072265625,0.5593999624252319,-0.008100000210106373,0.016899999231100082
1702338802575696100,61.13569604492187,0.5593999624252319,-0.017899999395012856,0.0066999997943639755
1702338802675994600,61.23599462890625,0.5888000130653381,0.011799999512732029,0.005200000014156103
1702338802775669500,61.33566943359375,0.6182000041007996,0.008700000122189522,-0.004100000020116568
1702338802876144600,61.43614453125,0.5985999703407288,0.0038999998942017555,0.0058999997563660145
1702338802975637800,61.5356376953125,0.5888000130653381,0.002300000051036477,-0.00419999985024333
1702338803075650800,61.63565087890625,0.5985999703407288,0.0030999998562037945,-0.004100000020116568
1702338803175635200,61.73563525390625,0.5789999961853027,-0.0058999997563660145,0.014599999412894249
1702338803275648300,61.835648193359376,0.6182999610900879,-0.0032999999821186066,0.004799999762326479
1702338803375656400,61.93565649414062,0.5986999869346619,-0.004399999976158142,0.004799999762326479
1702338803475971000,62.03597119140625,0.5692999958992004,-0.003700000001117587,0.02369999885559082
1702338803575649300,62.13564916992188,0.5593999624252319,0.0066999997943639755,0.023599999025464058
1702338803675627800,62.23562768554687,0.5986999869346619,0.01549999974668026,-0.00419999985024333
1702338803775705300,62.335705322265625,0.5985999703407288,0.014800000004470348,-0.023399999365210533
1702338803875652900,62.43565283203125,0.6085000038146973,-0.014599999412894249,-0.003499999875202775
1702338803975648300,62.53564819335938,0.5888000130653381,0.00419999985024333,-0.010999999940395355
1702338804076058600,62.63605859375,0.5985999703407288,-0.015399999916553497,0.01759999990463257
1702338804175694000,62.73569409179687,0.5985999703407288,-0.004699999932199717,-0.0018999999156221747
1702338804276420000,62.83642016601563,0.5888000130653381,-0.004699999932199717,0.01679999940097332
1702338804375683600,62.93568359375,0.5888999700546265,-0.003700000001117587,0.014599999412894249
1702338804475670000,63.035669921875,0.5791000127792358,0.006799999624490738,0.012000000104308128
1702338804575685600,63.135685546875,0.6085000038146973,0.02449999935925007,0.0024999999441206455
1702338804676055600,63.2360556640625,0.5986999869346619,0.003399999812245369,0.012000000104308128
1702338804775633200,63.335633056640624,0.6182999610900879,0.011399999260902405,0.001500000013038516
1702338804875658000,63.43565795898437,0.5888999700546265,0.00989999994635582,-0.006799999624490738
1702338804975637200,63.53563720703125,0.5888000130653381,0.00019999999494757503,0.0044999998062849045
1702338805075688200,63.63568823242188,0.6182000041007996,-0.019700000062584877,-0.004100000020116568
1702338805175661800,63.73566186523438,0.5888000130653381,-0.027300000190734863,0.0058999997563660145
1702338805276164900,63.83616479492188,0.5888000130653381,0.004900000058114529,0.006300000008195639
1702338805375672600,63.93567260742188,0.5691999793052673,-0.004399999976158142,0.01529999915510416
1702338805476260000,64.03626000976563,0.5985999703407288,-0.005200000014156103,-0.0037999998312443495
1702338805575641300,64.13564135742187,0.5986999869346619,-0.013100000098347664,0.005200000014156103
1702338805675655000,64.23565502929688,0.6182999610900879,-0.003700000001117587,0.014599999412894249
1702338805775657000,64.33565698242188,0.6085000038146973,0.016300000250339508,-0.004900000058114529
1702338805876048100,64.43604809570313,0.5888999700546265,0.004999999888241291,0.013499999418854713
1702338805975655000,64.53565502929688,0.5791000127792358,-0.013499999418854713,0.002199999988079071
1702338806076184000,64.63618408203125,0.559499979019165,-0.013799999840557575,0.002199999988079071
1702338806175692500,64.73569262695312,0.5986999869346619,-0.014299999922513962,0.012000000104308128
1702338806275674000,64.83567407226562,0.5691999793052673,-0.008100000210106373,0.002899999963119626
1702338806376651800,64.93665185546875,0.5888000130653381,-0.007599999662488699,0.0142000000923872
1702338806476616000,65.03661596679687,0.6083999872207642,0.00839999970048666,-0.022699998691678047
1702338806575693000,65.13569311523437,0.6279999613761902,-0.010300000198185444,-0.002300000051036477
1702338806675778800,65.23577880859375,0.5789999961853027,-0.020499998703598976,-0.002300000051036477
1702338806775668500,65.33566845703125,0.5985999703407288,0.0004999999655410647,0.007400000002235174
1702338806875897600,65.43589770507812,0.5985999703407288,0.009200000204145908,0.007799999788403511
1702338806975876900,65.535876953125,0.6083999872207642,-0.018299998715519905,0.015699999406933784
1702338807075654000,65.63565380859374,0.5888000130653381,-0.010199999436736107,0.014999999664723873
1702338807175719000,65.73571899414063,0.6279999613761902,-0.0005999999702908099,-0.013199999928474426
1702338807275913700,65.83591381835937,0.5593999624252319,-0.019700000062584877,-0.0018999999156221747
1702338807375682000,65.93568212890625,0.5985999703407288,0.0005999999702908099,-0.002300000051036477
1702338807475979500,66.0359794921875,0.5888000130653381,0.0016999999061226845,0.007799999788403511
1702338807575641300,66.13564135742187,0.5691999793052673,-0.006599999964237213,0.0066999997943639755
1702338807675668500,66.23566845703125,0.6182999610900879,0.002699999837204814,0.015399999916553497
1702338807775970600,66.33597045898438,0.6085000038146973,-0.006300000008195639,0.003700000001117587
1702338807875871500,66.43587158203125,0.5888999700546265,-0.014599999412894249,0.003700000001117587
1702338807975862300,66.5358623046875,0.6085000038146973,0.0038999998942017555,0.0032999999821186066
1702338808075668500,66.63566845703124,0.5691999793052673,0.002699999837204814,0.013199999928474426
1702338808175690200,66.73569018554687,0.5986999869346619,0.003399999812245369,0.002899999963119626
1702338808276008000,66.83600805664062,0.5888999700546265,0.013299999758601189,-0.006399999838322401
1702338808375693600,66.93569360351563,0.5986999869346619,-0.00559999980032444,0.002899999963119626
1702338808475686700,67.03568676757813,0.5691999793052673,-0.005399999674409628,0.003700000001117587
1702338808576445000,67.13644482421876,0.6085000038146973,-0.0050999997183680534,-0.013599999248981476
1702338808676133000,67.23613305664063,0.5888000130653381,0.013199999928474426,0.01640000008046627
1702338808775676400,67.33567651367187,0.6182000041007996,-0.0066999997943639755,-0.002300000051036477
1702338808876121600,67.43612158203125,0.5985999703407288,0.0013000000035390258,0.02669999934732914
1702338808975665000,67.53566479492187,0.6083999872207642,-0.007999999448657036,0.007499999832361937
1702338809076200200,67.6362001953125,0.5888000130653381,0.0008999999845400453,-0.0026000000070780516
1702338809175934700,67.73593481445313,0.5789999961853027,0.0037999998312443495,0.006300000008195639
1702338809275680000,67.83567993164063,0.5496000051498413,-0.015699999406933784,0.005499999970197678
1702338809375670000,67.935669921875,0.5789999961853027,0.004900000058114529,0.01489999983459711
1702338809475683000,68.03568310546875,0.5789999961853027,0.004900000058114529,0.014599999412894249
1702338809575677400,68.13567749023437,0.6085000038146973,0.005799999926239252,0.004799999762326479
1702338809675956500,68.23595654296875,0.6280999779701233,0.006799999624490738,0.004399999976158142
1702338809775918600,68.33591870117188,0.5888999700546265,-0.0024999999441206455,0.01269999984651804
1702338809875913700,68.43591381835938,0.5496000051498413,-0.002099999925121665,0.003999999724328518
1702338809975640300,68.53564038085938,0.5888999700546265,0.026799999177455902,0.013399999588727951
1702338810075633200,68.63563305664063,0.6280999779701233,-0.0017999999690800905,0.003599999938160181
1702338810175658000,68.73565795898438,0.5888999700546265,-0.004799999762326479,0.003599999938160181
1702338810275666000,68.835666015625,0.5888999700546265,-0.01489999983459711,0.004399999976158142
1702338810375694000,68.93569409179688,0.5888999700546265,-0.0050999997183680534,0.013100000098347664
1702338810475858200,69.03585815429688,0.6085000038146973,-0.02329999953508377,0.0032999999821186066
1702338810575736800,69.13573681640625,0.5791000127792358,-0.024399999529123306,-0.00559999980032444
1702338810675679000,69.23567895507813,0.5789999961853027,0.01549999974668026,-0.014299999922513962
1702338810775664400,69.33566430664062,0.6085000038146973,0.006000000052154064,0.003999999724328518
1702338810875879000,69.43587890625,0.5691999793052673,-0.003599999938160181,0.013899999670684338
1702338810975631600,69.53563159179687,0.5888999700546265,0.0052999998442828655,0.013100000098347664
1702338811076169000,69.6361689453125,0.5791000127792358,-0.02329999953508377,0.002099999925121665
1702338811175678500,69.73567846679687,0.5888999700546265,0.004999999888241291,-0.007599999662488699
1702338811275710200,69.83571020507813,0.5986999869346619,-0.013799999840557575,0.012999999336898327
1702338811375645400,69.9356455078125,0.5888999700546265,-0.002899999963119626,-0.004999999888241291
1702338811475690800,70.03569067382813,0.5789999961853027,0.015799999237060547,0.01489999983459711
1702338811575720400,70.13572045898438,0.5791000127792358,0.016300000250339508,0.004299999680370092
1702338811675886000,70.23588598632813,0.6085000038146973,0.017400000244379044,0.003999999724328518
1702338811775645000,70.33564501953126,0.5888999700546265,0.017099998891353607,-0.015099999494850636
1702338811875877400,70.43587744140625,0.5791000127792358,-0.0050999997183680534,0.013100000098347664
1702338811975651800,70.53565185546876,0.5888999700546265,-0.012799999676644802,0.013100000098347664
1702338812075674000,70.63567407226563,0.5888999700546265,0.0071000000461936,0.0032999999821186066
1702338812175686100,70.73568603515625,0.5888999700546265,0.0071000000461936,0.003700000001117587
1702338812275677400,70.83567749023437,0.5593999624252319,-0.003599999938160181,-0.004999999888241291
1702338812375950800,70.93595092773438,0.5692999958992004,-0.002099999925121665,0.02369999885559082
1702338812475685000,71.03568505859376,0.5789999961853027,0.005699999630451202,-0.014800000004470348
1702338812575661800,71.13566186523437,0.6085000038146973,-0.004399999976158142,0.004799999762326479
1702338812675644400,71.23564453125,0.6085000038146973,0.0139999995008111,-0.0052999998442828655
1702338812775865900,71.33586596679687,0.6182999610900879,-0.014999999664723873,0.0032999999821186066
1702338812875644000,71.43564379882812,0.5789999961853027,0.003499999875202775,-0.0052999998442828655
1702338812975650300,71.535650390625,0.5789999961853027,-0.015699999406933784,0.013799999840557575
1702338813075651300,71.6356513671875,0.6280999779701233,0.010300000198185444,0.0050999997183680534
1702338813176155400,71.7361552734375,0.5985999703407288,0.0013000000035390258,0.015699999406933784
1702338813275894500,71.83589453125,0.5888000130653381,-0.008799999952316284,0.024399999529123306
1702338813375874800,71.93587475585937,0.6182999610900879,0.011799999512732029,-0.0052999998442828655
1702338813475665400,72.03566552734375,0.5986999869346619,0.0013000000035390258,0.013799999840557575
1702338813575868000,72.13586791992188,0.6182999610900879,0.01269999984651804,-0.0052999998442828655
1702338813675730400,72.23573046875,0.6085000038146973,-0.008599999360740185,-0.006000000052154064
1702338813775927300,72.33592724609375,0.5986999869346619,0.002300000051036477,0.0142000000923872
1702338813875638800,72.435638671875,0.5593999624252319,0.0011999999405816197,0.005200000014156103
1702338813975680500,72.53568041992187,0.5888000130653381,0.0004999999655410647,0.0058999997563660145
1702338814075938800,72.63593872070312,0.6083999872207642,-0.009200000204145908,-0.003499999875202775
1702338814175687700,72.73568774414062,0.5985999703407288,0.00009999999747378752,-0.002699999837204814
1702338814275674600,72.83567456054688,0.5985999703407288,-0.0023999998811632395,0.008499999530613422
1702338814375980500,72.93598046875,0.6083999872207642,-0.013700000010430813,0.009999999776482582
1702338814475674000,73.03567407226562,0.5789999961853027,-0.0030999998562037945,0.009599999524652958
1702338814576152800,73.13615283203124,0.5888000130653381,-0.020899999886751175,0.01759999990463257
1702338814675685600,73.235685546875,0.6377999782562256,-0.009999999776482582,0.008499999530613422
1702338814775917300,73.33591723632813,0.5888000130653381,0.00009999999747378752,-0.002300000051036477
1702338814875650800,73.43565087890624,0.6182000041007996,0.0013000000035390258,0.0066999997943639755
1702338814975816400,73.53581640625,0.6182000041007996,0.0018999999156221747,0.0066999997943639755
1702338815076176400,73.63617626953125,0.5888000130653381,-0.009200000204145908,0.0071000000461936
1702338815175674600,73.73567456054687,0.5985999703407288,0.010999999940395355,-0.003399999812245369
1702338815275683000,73.83568310546875,0.5985999703407288,0.002300000051036477,0.006000000052154064
1702338815375941400,73.93594140625,0.6085000038146973,-0.007400000002235174,0.004900000058114529
1702338815475683000,74.03568310546875,0.5789999961853027,0.002099999925121665,0.00559999980032444
1702338815575858200,74.13585815429687,0.6182999610900879,0.001999999862164259,0.004799999762326479
1702338815675690200,74.23569018554687,0.5789999961853027,0.0015999999595806003,0.005200000014156103
1702338815775687200,74.33568725585937,0.6083999872207642,-0.009499999694526196,-0.0044999998062849045
1702338815875629800,74.4356298828125,0.5593999624252319,-0.008200000040233135,0.0050999997183680534
1702338815975641300,74.53564135742188,0.5888000130653381,0.021299999207258224,0.0044999998062849045
1702338816075671600,74.63567163085938,0.5888000130653381,0.0023999998811632395,0.006599999964237213
1702338816175681000,74.73568090820312,0.5888000130653381,0,-0.0030999998562037945
1702338816275674000,74.83567407226562,0.5888000130653381,0.011099999770522118,-0.011799999512732029
1702338816375700200,74.9357001953125,0.5691999793052673,-0.01979999989271164,0.018299998715519905
1702338816475680500,75.03568041992187,0.6083999872207642,-0.009599999524652958,0.008799999952316284
1702338816575692500,75.13569262695313,0.5789999961853027,-0.00039999998989515007,0.016899999231100082
1702338816675684600,75.2356845703125,0.5985999703407288,-0.01759999990463257,0.007400000002235174
1702338816775696100,75.33569604492187,0.5888000130653381,-0.006300000008195639,-0.0026000000070780516
1702338816875934200,75.43593432617187,0.5888000130653381,0.00419999985024333,-0.003000000026077032
1702338816975643400,75.53564331054687,0.5789999961853027,-0.014999999664723873,0.01599999889731407
1702338817075647200,75.63564721679687,0.5789999961853027,0.00419999985024333,0.00699999975040555
1702338817175704800,75.73570483398437,0.5985999703407288,0.004999999888241291,0.006599999964237213
1702338817275662300,75.83566235351563,0.5888000130653381,0.012899999506771564,0.006199999712407589
1702338817375677000,75.93567700195312,0.5888000130653381,-0.006899999920278788,0.01640000008046627
1702338817475862800,76.03586279296874,0.5888000130653381,-0.015699999406933784,0.015599999576807022
1702338817575680000,76.13567993164062,0.5791000127792358,0.007199999876320362,0.0142000000923872
1702338817675896600,76.235896484375,0.5791000127792358,-0.003999999724328518,0.0032999999821186066
1702338817775879400,76.33587939453125,0.5986999869346619,-0.01269999984651804,-0.007499999832361937
1702338817875634700,76.435634765625,0.5791000127792358,-0.012399999424815178,0.011599999852478504
1702338817975650800,76.53565087890625,0.5791000127792358,-0.004600000102072954,0.002899999963119626
1702338818075669000,76.6356689453125,0.5791000127792358,-0.006099999882280827,0.003599999938160181
1702338818175659000,76.73565893554688,0.5888999700546265,-0.005499999970197678,-0.006099999882280827
1702338818275876400,76.83587646484375,0.5888999700546265,-0.012999999336898327,0.022499999031424522
1702338818375837700,76.93583764648437,0.5888999700546265,-0.0031999999191612005,0.002899999963119626
1702338818475640800,77.03564086914062,0.6182999610900879,0.01549999974668026,0.003999999724328518
1702338818575697200,77.135697265625,0.5888000130653381,-0.005499999970197678,-0.0139999995008111
1702338818675676200,77.23567626953125,0.5593999624252319,0.003499999875202775,0.005499999970197678
1702338818775694000,77.33569409179688,0.6083999872207642,-0.009499999694526196,0.007400000002235174
1702338818875645000,77.43564501953125,0.5888000130653381,-0.009200000204145908,0.007699999958276749
1702338818975639300,77.53563940429687,0.6083999872207642,-0.009099999442696571,0.007799999788403511
1702338819075683600,77.63568359375,0.5985999703407288,-0.008200000040233135,-0.002699999837204814
1702338819175678000,77.73567797851562,0.6083999872207642,0.019999999552965164,-0.0018999999156221747
1702338819275687200,77.83568725585937,0.6083999872207642,0.002699999837204814,-0.011399999260902405
1702338819375915300,77.93591528320313,0.5888000130653381,-0.006300000008195639,0.01759999990463257
1702338819476146700,78.03614672851562,0.5888000130653381,0.004900000058114529,-0.002699999837204814
1702338819576412700,78.13641259765625,0.6182000041007996,0.023000000044703484,-0.001999999862164259
1702338819675974100,78.23597412109375,0.5888000130653381,-0.0032999999821186066,0.007400000002235174
1702338819775764200,78.33576416015624,0.5985999703407288,-0.004399999976158142,0.007699999958276749
1702338819875627800,78.43562768554688,0.5888000130653381,0.005399999674409628,0.007699999958276749
1702338819975719400,78.53571948242187,0.5888000130653381,0.004799999762326479,-0.011799999512732029
1702338820075874300,78.63587426757813,0.5888000130653381,-0.003700000001117587,0.006199999712407589
1702338820175890000,78.73588989257813,0.5791000127792358,0.005699999630451202,0.004399999976158142
1702338820275913200,78.83591333007813,0.5986999869346619,-0.0032999999821186066,0.01269999984651804
1702338820375759000,78.93575903320313,0.5692999958992004,-0.014099999330937862,0.012399999424815178
1702338820475673000,79.03567309570313,0.5496999621391296,-0.003700000001117587,-0.008299999870359898
1702338820576128300,79.13612817382813,0.5791000127792358,-0.0032999999821186066,0.00969999935477972
1702338820675668500,79.23566845703125,0.5791000127792358,-0.00139999995008111,0.0009999999310821295
1702338820776365800,79.33636572265625,0.5692999958992004,-0.021699998527765274,0.002099999925121665
1702338820875818500,79.43581860351563,0.5888999700546265,0.016499999910593033,0.002099999925121665
1702338820976272600,79.53627270507812,0.5692999958992004,-0.01269999984651804,0.0024999999441206455
1702338821075670000,79.635669921875,0.5986999869346619,-0.010900000110268593,0.0024999999441206455
1702338821175669000,79.7356689453125,0.5888999700546265,-0.002199999988079071,0.002899999963119626
1702338821276198100,79.8361982421875,0.5791000127792358,-0.0018999999156221747,0.0016999999061226845
1702338821375899600,79.93589965820313,0.5791000127792358,-0.00139999995008111,0.002899999963119626
1702338821476136700,80.03613671875,0.6085000038146973,-0.0005999999702908099,0.011599999852478504
1702338821576380400,80.13638037109375,0.5791000127792358,-0.002099999925121665,0.012299999594688416
1702338821675711200,80.23571118164062,0.5791000127792358,-0.005399999674409628,0.003999999724328518
1702338821775649800,80.33564990234375,0.5985999703407288,-0.005799999926239252,0.01599999889731407
1702338821875628300,80.43562817382812,0.5985999703407288,-0.014499999582767487,0.005799999926239252
1702338821975654400,80.535654296875,0.5789999961853027,-0.0058999997563660145,-0.0030999998562037945
1702338822075633200,80.63563305664063,0.5888000130653381,-0.015699999406933784,0.0072999997064471245
1702338822175654400,80.735654296875,0.5888000130653381,-0.004100000020116568,0.025100000202655792
1702338822275649300,80.83564916992188,0.5888999700546265,-0.003599999938160181,0.013499999418854713
1702338822375691300,80.93569116210938,0.5791000127792358,-0.013899999670684338,-0.0052999998442828655
1702338822476156000,81.03615600585937,0.5691999793052673,-0.004100000020116568,0.0050999997183680534
1702338822575707100,81.13570703125,0.5593999624252319,0.006099999882280827,0.015699999406933784
1702338822675648300,81.23564819335938,0.5593999624252319,-0.002899999963119626,0.01640000008046627
1702338822775998200,81.33599829101563,0.5986999869346619,-0.012399999424815178,0.006599999964237213
1702338822876158500,81.43615844726563,0.5888999700546265,-0.01119999960064888,0.013399999588727951
1702338822975627300,81.53562719726563,0.5888999700546265,-0.0024999999441206455,0.004699999932199717
1702338823075646000,81.63564599609376,0.5986999869346619,0.0066999997943639755,0.003599999938160181
1702338823175629300,81.73562939453124,0.5888999700546265,0.0066999997943639755,0.012999999336898327
1702338823275654000,81.83565380859375,0.5986999869346619,-0.012000000104308128,0.013100000098347664
1702338823375635700,81.9356357421875,0.5791000127792358,0.006799999624490738,0.013399999588727951
1702338823476168000,82.03616796875,0.5888999700546265,0.006799999624490738,-0.016300000250339508
1702338823575645000,82.13564501953125,0.5888999700546265,0.0072999997064471245,0.0024999999441206455
1702338823675761200,82.23576123046875,0.6085000038146973,0.006099999882280827,-0.01549999974668026
1702338823775880000,82.3358798828125,0.5789999961853027,0.004999999888241291,-0.0052999998442828655
1702338823875630800,82.435630859375,0.5789999961853027,-0.003700000001117587,0.005499999970197678
1702338823975882000,82.53588208007812,0.559499979019165,-0.0013000000035390258,0.003999999724328518
1702338824075918600,82.63591870117187,0.5888000130653381,0.007899999618530273,0.006199999712407589
1702338824175680000,82.73567993164062,0.5791000127792358,-0.009999999776482582,-0.006099999882280827
1702338824275677400,82.83567749023437,0.6085000038146973,-0.008700000122189522,-0.006099999882280827
1702338824375685000,82.93568505859375,0.5986999869346619,0.009399999864399433,0.013399999588727951
1702338824476369400,83.03636938476562,0.5791000127792358,0.008599999360740185,0.013799999840557575
1702338824575965000,83.13596484375,0.5692999958992004,0.007599999662488699,0.022099999710917473
1702338824676116500,83.23611645507812,0.6085000038146973,-0.020600000396370888,0.02329999953508377
1702338824775649800,83.33564990234375,0.5791000127792358,-0.0018999999156221747,0.0024999999441206455
1702338824875882500,83.43588256835938,0.5986999869346619,-0.011599999852478504,0.0024999999441206455
1702338824975633700,83.53563354492188,0.5986999869346619,-0.00139999995008111,-0.006799999624490738
1702338825075651800,83.63565185546875,0.5888999700546265,-0.00029999998514540493,0.004399999976158142
1702338825175640800,83.73564086914062,0.5791000127792358,0.006399999838322401,0.024399999529123306
1702338825276132000,83.83613208007813,0.5888999700546265,-0.011899999342858791,0.014599999412894249
1702338825375679000,83.93567895507813,0.5791000127792358,-0.0023999998811632395,0.005200000014156103
1702338825475977700,84.03597778320312,0.5986999869346619,-0.002199999988079071,0.004399999976158142
1702338825575674600,84.13567456054687,0.5888999700546265,-0.021800000220537186,0.01269999984651804
1702338825675699700,84.23569970703124,0.5986999869346619,-0.010400000028312206,0.0032999999821186066
1702338825775673000,84.33567309570313,0.5692999958992004,-0.011699999682605267,0.0031999999191612005
1702338825875991300,84.4359912109375,0.6085000038146973,-0.012399999424815178,0.011899999342858791
1702338825975836200,84.53583618164062,0.5791000127792358,-0.003599999938160181,0.0031999999191612005
1702338826076313300,84.63631323242187,0.5986999869346619,-0.012399999424815178,0.0024999999441206455
1702338826176212700,84.73621264648438,0.5791000127792358,-0.003999999724328518,0.011599999852478504
1702338826275973600,84.8359736328125,0.559499979019165,-0.02369999885559082,0.002199999988079071
1702338826375693600,84.93569360351563,0.5791000127792358,-0.0031999999191612005,-0.006399999838322401
1702338826476156400,85.03615649414063,0.5791000127792358,-0.01269999984651804,0.0032999999821186066
1702338826575946000,85.13594604492188,0.6085000038146973,-0.005499999970197678,-0.0052999998442828655
1702338826676145200,85.23614526367187,0.5789999961853027,0.0037999998312443495,0.014599999412894249
1702338826776153900,85.33615380859375,0.5888000130653381,-0.005799999926239252,-0.0037999998312443495
1702338826875659000,85.43565893554687,0.5691999793052673,-0.0058999997563660145,0.005499999970197678
1702338826975662300,85.53566235351562,0.5985999703407288,-0.0071000000461936,0.006599999964237213
1702338827076382500,85.63638256835938,0.5986999869346619,-0.0050999997183680534,0.014599999412894249
1702338827175670000,85.735669921875,0.5986999869346619,0.006099999882280827,0.014599999412894249
1702338827275677400,85.83567749023437,0.6085000038146973,-0.0050999997183680534,0.003599999938160181
1702338827375670000,85.935669921875,0.5986999869346619,-0.005799999926239252,0.004100000020116568
1702338827475682000,86.03568212890625,0.5692999958992004,0.003399999812245369,0.011599999852478504
1702338827575639300,86.13563940429688,0.5791000127792358,-0.00559999980032444,0.0024999999441206455
1702338827675835100,86.23583520507813,0.5986999869346619,-0.005799999926239252,0.010900000110268593
1702338827775644000,86.33564379882813,0.5791000127792358,-0.006199999712407589,0.0005999999702908099
1702338827875660500,86.43566064453125,0.5791000127792358,-0.00699999975040555,0.0009999999310821295
1702338827976092400,86.53609252929688,0.5888999700546265,0.003399999812245369,0.012000000104308128
1702338828075775200,86.63577514648438,0.5888000130653381,-0.007799999788403511,0.0142000000923872
1702338828176031500,86.73603149414062,0.5691999793052673,0.0011999999405816197,0.006199999712407589
1702338828275935200,86.83593530273437,0.5985999703407288,0.0011999999405816197,0.007699999958276749
1702338828375680500,86.93568041992188,0.5789999961853027,0.010599999688565731,-0.010300000198185444
1702338828475672600,87.03567260742187,0.6279999613761902,0.00930000003427267,0.009599999524652958
1702338828576131000,87.13613110351562,0.5691999793052673,-0.002699999837204814,0.009200000204145908
1702338828675673600,87.23567358398438,0.5888000130653381,-0.003599999938160181,0.009999999776482582
1702338828775695600,87.33569555664063,0.5888000130653381,-0.015099999494850636,0.001999999862164259
1702338828875654400,87.435654296875,0.5691999793052673,0.006199999712407589,0.0013000000035390258
1702338828975629800,87.5356298828125,0.6083999872207642,-0.013299999758601189,0.0013000000035390258
1702338829075646000,87.63564599609376,0.588699996471405,-0.01249999925494194,-0.015599999576807022
1702338829175815400,87.7358154296875,0.5690999627113342,0.0072999997064471245,0.023499999195337296
1702338829276248600,87.83624853515624,0.6083999872207642,0.009499999694526196,-0.006899999920278788
1702338829375683000,87.93568310546875,0.5888000130653381,-0.0004999999655410647,0.011099999770522118
1702338829475655000,88.03565502929688,0.6083999872207642,-0.019199999049305916,0.011799999512732029
1702338829575884000,88.13588403320313,0.5985999703407288,-0.008899999782443047,0.017899999395012856
1702338829675657500,88.23565747070313,0.5985999703407288,0.010300000198185444,0.007799999788403511
1702338829776094000,88.33609399414063,0.5789999961853027,-0.029899999499320984,0.01759999990463257
1702338829875994600,88.43599462890624,0.5888000130653381,-0.013799999840557575,-0.0007999999797903001
1702338829975661000,88.5356611328125,0.5985999703407288,-0.014299999922513962,0.008200000040233135
1702338830075672600,88.63567260742188,0.5789999961853027,-0.00419999985024333,0
1702338830176176400,88.73617626953126,0.5985999703407288,0.014999999664723873,0.008599999360740185
1702338830275932400,88.83593237304687,0.6182000041007996,-0.004100000020116568,-0.00039999998989515007
1702338830375689700,88.93568969726563,0.6182000041007996,-0.01209999993443489,-0.00989999994635582
1702338830475680000,89.03567993164063,0.5789999961853027,-0.010999999940395355,0.01759999990463257
1702338830575693000,89.13569311523437,0.6083999872207642,0.015799999237060547,-0.002300000051036477
1702338830675675100,89.23567504882813,0.5691999793052673,0.006899999920278788,-0.00009999999747378752
1702338830775962000,89.33596215820313,0.5888000130653381,-0.011799999512732029,-0.0011999999405816197
1702338830875646000,89.43564599609375,0.5691999793052673,-0.029600000008940697,0.017899999395012856
1702338830975748600,89.53574853515624,0.6083999872207642,-0.009800000116229057,0.00930000003427267
1702338831076309500,89.6363095703125,0.5985999703407288,-0.01679999940097332,0.017899999395012856
1702338831176162300,89.73616235351562,0.5691999793052673,-0.0058999997563660145,0.0058999997563660145
1702338831275681500,89.835681640625,0.5985999703407288,0.0030999998562037945,0.015399999916553497
1702338831375675100,89.93567504882813,0.5888000130653381,-0.01529999915510416,0.024799998849630356
1702338831475692000,90.03569213867188,0.5986999869346619,-0.014499999582767487,0.005499999970197678
1702338831575678000,90.13567797851563,0.6182000041007996,-0.0058999997563660145,0.00699999975040555
1702338831676158000,90.23615795898438,0.5888000130653381,-0.024799998849630356,-0.0015999999595806003
1702338831775944400,90.3359443359375,0.5888000130653381,-0.012799999676644802,0.008100000210106373
1702338831875658000,90.43565795898438,0.5789999961853027,-0.0032999999821186066,0.008100000210106373
1702338831975646700,90.53564672851563,0.5888000130653381,-0.004799999762326479,0.017899999395012856
1702338832075636200,90.63563623046875,0.5888000130653381,-0.013100000098347664,-0.0008999999845400453
1702338832175650800,90.73565087890626,0.5985999703407288,-0.002099999925121665,0.0072999997064471245
1702338832275842300,90.83584228515625,0.5888000130653381,-0.00279999990016222,0.0058999997563660145
1702338832375688200,90.93568823242188,0.5593999624252319,0.005399999674409628,0.0058999997563660145
1702338832475670500,91.03567041015626,0.5593999624252319,-0.021399999037384987,0.01489999983459711
1702338832576181500,91.13618139648437,0.6085000038146973,0.016699999570846558,-0.006099999882280827
1702338832675682000,91.23568212890625,0.5691999793052673,-0.0050999997183680534,0.0050999997183680534
1702338832775689200,91.33568920898438,0.5593999624252319,-0.014699999243021011,0.006199999712407589
1702338832875639300,91.43563940429688,0.6182999610900879,0.005699999630451202,-0.002699999837204814
1702338832975627300,91.53562719726563,0.5985999703407288,0.0037999998312443495,0.008100000210106373
1702338833075922200,91.63592211914063,0.5888000130653381,-0.004100000020116568,0.007400000002235174
1702338833175671600,91.73567163085937,0.5986999869346619,-0.013100000098347664,0.0058999997563660145
1702338833275683600,91.83568359375,0.5789999961853027,0.005699999630451202,0.015699999406933784
1702338833375671600,91.93567163085937,0.5888999700546265,-0.0024999999441206455,0.003999999724328518
1702338833475708200,92.03570825195312,0.5986999869346619,-0.003999999724328518,-0.015799999237060547
1702338833575643000,92.13564282226562,0.5986999869346619,-0.005499999970197678,0.005200000014156103
1702338833675914800,92.23591479492187,0.5789999961853027,-0.0072999997064471245,0.016099998727440834
1702338833775686100,92.33568603515624,0.5888000130653381,0.002899999963119626,-0.003000000026077032
1702338833875657500,92.43565747070312,0.5789999961853027,0.011899999342858791,-0.0018999999156221747
1702338833975650300,92.535650390625,0.5789999961853027,0.0015999999595806003,-0.0004999999655410647
1702338834075633700,92.63563354492187,0.5985999703407288,0.0015999999595806003,0.00839999970048666
1702338834175647700,92.73564770507812,0.5789999961853027,-0.006300000008195639,-0.001999999862164259
1702338834275816000,92.83581591796874,0.5789999961853027,0.011299999430775642,0.00699999975040555
1702338834376521500,92.936521484375,0.5789999961853027,-0.008499999530613422,0.01489999983459711
1702338834475649800,93.03564990234375,0.5791000127792358,-0.01489999983459711,0.01119999960064888
1702338834575659500,93.13565942382813,0.5986999869346619,0.003399999812245369,-0.007899999618530273
1702338834675642400,93.23564233398437,0.5692999958992004,-0.016499999910593033,0.02029999904334545
1702338834779417900,93.33941796875,0.5791000127792358,0.02369999885559082,0.0009999999310821295
1702338834875644000,93.43564379882812,0.5986999869346619,-0.0050999997183680534,0.011599999852478504
1702338834975658500,93.53565844726562,0.5888999700546265,-0.015399999916553497,0.003700000001117587
1702338835075651800,93.63565185546875,0.5593999624252319,-0.0032999999821186066,0.003700000001117587
1702338835175636700,93.73563671875,0.5888999700546265,0.01730000041425228,0.0050999997183680534
1702338835275707100,93.83570703125,0.5692999958992004,-0.010099999606609344,0.0142000000923872
1702338835375651300,93.9356513671875,0.5986999869346619,0.008700000122189522,0.01489999983459711
1702338835476222700,94.03622265625,0.5986999869346619,0.008299999870359898,0.01489999983459711
1702338835576713700,94.13671362304687,0.5888999700546265,-0.0018999999156221747,-0.005399999674409628
1702338835675955000,94.23595483398438,0.5888999700546265,0.007999999448657036,0.021800000220537186
1702338835775946500,94.33594653320313,0.5888999700546265,-0.013100000098347664,0.0032999999821186066
1702338835875668000,94.43566796875,0.6280999779701233,0.014399999752640724,-0.01549999974668026
1702338835975704300,94.53570434570312,0.5888999700546265,0.004100000020116568,0.013100000098347664
1702338836075630300,94.63563037109375,0.6182999610900879,-0.0066999997943639755,0.004799999762326479
1702338836176084000,94.736083984375,0.5691999793052673,-0.01730000041425228,0.006300000008195639
1702338836275659000,94.83565893554687,0.5888000130653381,-0.01679999940097332,0.0058999997563660145
1702338836375652900,94.93565283203125,0.5888000130653381,-0.005200000014156103,0.01489999983459711
1702338836475650300,95.035650390625,0.5789999961853027,0.004100000020116568,0.01489999983459711
1702338836575686700,95.13568676757812,0.5888999700546265,-0.0031999999191612005,-0.006099999882280827
1702338836675777800,95.23577783203125,0.6085000038146973,-0.0017999999690800905,0.00279999990016222
1702338836775867000,95.33586694335938,0.5692999958992004,-0.00139999995008111,0.01119999960064888
1702338836875647700,95.43564770507813,0.6085000038146973,0.007499999832361937,0.01119999960064888
1702338836975663400,95.53566333007812,0.6182999610900879,0.008700000122189522,-0.008200000040233135
1702338837075920600,95.63592065429688,0.5986999869346619,0.016099998727440834,0.010499999858438969
1702338837175669000,95.7356689453125,0.5986999869346619,-0.014599999412894249,0.002199999988079071
1702338837275682000,95.83568212890626,0.5986999869346619,-0.004100000020116568,0.002899999963119626
1702338837375844000,95.93584399414063,0.5791000127792358,-0.002199999988079071,0.00139999995008111
1702338837475693600,96.03569360351563,0.5888999700546265,-0.012799999676644802,0.0017999999690800905
1702338837575683600,96.13568359375,0.6085000038146973,-0.009399999864399433,0.010499999858438969
1702338837676002300,96.23600219726562,0.5791000127792358,0.000699999975040555,0.019500000402331352
1702338837775651800,96.33565185546875,0.5692999958992004,-0.00930000003427267,-0.008700000122189522
1702338837875661000,96.4356611328125,0.5692999958992004,-0.019500000402331352,-0.026799999177455902
1702338837975721500,96.53572143554688,0.5791000127792358,0.009800000116229057,0.01269999984651804
1702338838075635200,96.63563525390624,0.5789999961853027,0.0064999996684491634,-0.004600000102072954
1702338838175825200,96.7358251953125,0.5789999961853027,-0.023899998515844345,-0.003499999875202775
1702338838275789800,96.83578979492188,0.6085000038146973,0.013299999758601189,-0.0038999998942017555
1702338838375689700,96.93568969726563,0.5985999703407288,-0.016899999231100082,-0.0030999998562037945
1702338838475669000,97.0356689453125,0.5789999961853027,0.010799999348819256,0.015699999406933784
1702338838575686700,97.13568676757812,0.5985999703407288,-0.008999999612569809,0.005200000014156103
1702338838675667500,97.23566748046875,0.5888000130653381,-0.00930000003427267,-0.013299999758601189
1702338838775691300,97.33569116210937,0.5691999793052673,0.0023999998811632395,0.01529999915510416
1702338838875655400,97.43565551757813,0.5888999700546265,-0.005499999970197678,-0.004999999888241291
1702338838975661000,97.5356611328125,0.5888000130653381,-0.003700000001117587,0.006599999964237213
1702338839075651800,97.63565185546875,0.6083999872207642,0.006099999882280827,0.00699999975040555
1702338839175946500,97.73594653320312,0.5888000130653381,-0.011899999342858791,-0.013299999758601189
1702338839275686700,97.83568676757812,0.5789999961853027,0.005200000014156103,-0.0030999998562037945
1702338839375937800,97.93593774414063,0.5789999961853027,-0.004799999762326479,0.006599999964237213
1702338839475939300,98.03593920898437,0.5691999793052673,-0.014800000004470348,0.0142000000923872
1702338839575639300,98.13563940429688,0.5593999624252319,0.0044999998062849045,-0.003499999875202775
1702338839675956500,98.23595654296875,0.6182999610900879,0.002699999837204814,-0.013700000010430813
1702338839775672600,98.33567260742187,0.6085000038146973,0.01209999993443489,0.01489999983459711
1702338839875662300,98.43566235351562,0.5985999703407288,0.0016999999061226845,0.0050999997183680534
1702338839975720400,98.53572045898437,0.5985999703407288,-0.008100000210106373,-0.002699999837204814
1702338840075932000,98.63593188476563,0.5888000130653381,-0.0005999999702908099,0.006300000008195639
1702338840175649800,98.73564990234375,0.5888000130653381,-0.027699999511241913,0.014999999664723873
1702338840275636700,98.83563671875,0.5789999961853027,-0.0058999997563660145,0.024399999529123306
1702338840375660500,98.93566064453125,0.5986999869346619,-0.00559999980032444,0.003999999724328518
1702338840475670000,99.035669921875,0.5888999700546265,0.004299999680370092,0.003700000001117587
1702338840575688700,99.13568872070313,0.5888999700546265,0.010499999858438969,0.010799999348819256
1702338840676061700,99.23606176757812,0.5986999869346619,-0.000699999975040555,0.020600000396370888
1702338840775655000,99.33565502929687,0.5888999700546265,-0.0032999999821186066,-0.006099999882280827
1702338840875881500,99.43588159179687,0.5986999869346619,-0.004699999932199717,0.0142000000923872
1702338840975656400,99.53565649414062,0.5691999793052673,0.014099999330937862,-0.004999999888241291
1702338841075898000,99.63589819335938,0.5985999703407288,0.00039999998989515007,0.0066999997943639755
1702338841175673600,99.73567358398438,0.5985999703407288,-0.00019999999494757503,-0.0015999999595806003
1702338841275867400,99.83586743164062,0.5985999703407288,-0.018199998885393143,-0.003000000026077032
1702338841375994600,99.93599462890624,0.5985999703407288,0.011099999770522118,0.0058999997563660145
1702338841475960000,100.0359599609375,0.5986999869346619,0.012999999336898327,0.02329999953508377
1702338841575682000,100.13568212890625,0.5888999700546265,-0.0058999997563660145,0.003700000001117587
1702338841675689700,100.23568969726563,0.5791000127792358,0.0052999998442828655,-0.006000000052154064
1702338841775668000,100.33566796875,0.5986999869346619,-0.012799999676644802,0.04169999808073044
1702338841875661000,100.4356611328125,0.5888999700546265,-0.00039999998989515007,0.012299999594688416
1702338841975646000,100.53564599609375,0.5692999958992004,0.007499999832361937,0.003700000001117587
1702338842075627300,100.63562719726562,0.559499979019165,-0.012799999676644802,0.012999999336898327
1702338842175638800,100.735638671875,0.5888999700546265,-0.0024999999441206455,0.011599999852478504
1702338842275915300,100.83591528320312,0.5888999700546265,0.006099999882280827,-0.006799999624490738
1702338842375955000,100.93595483398437,0.5986999869346619,-0.004299999680370092,0.0026000000070780516
1702338842475934200,101.03593432617187,0.5496999621391296,-0.013100000098347664,0.011899999342858791
1702338842575965400,101.13596533203125,0.5888999700546265,-0.0026000000070780516,0.0032999999821186066
1702338842675668000,101.23566796875,0.5692999958992004,-0.012399999424815178,-0.016200000420212746
1702338842775889400,101.33588940429688,0.6182999610900879,-0.0024999999441206455,0.01269999984651804
1702338842875638300,101.43563818359375,0.5888999700546265,0.006099999882280827,0.003999999724328518
1702338842975655400,101.53565551757812,0.5986999869346619,0.004399999976158142,0.014599999412894249
1702338843075648800,101.63564868164063,0.5789999961853027,0.012600000016391277,0.013499999418854713
1702338843175974100,101.73597412109375,0.5888999700546265,0.0011999999405816197,0.012799999676644802
1702338843275680000,101.83567993164063,0.5789999961853027,-0.01850000023841858,0.013499999418854713
1702338843376181500,101.93618139648437,0.5789999961853027,0.00989999994635582,0.022599998861551285
1702338843476335600,102.03633569335938,0.5888000130653381,-0.009099999442696571,0.005200000014156103
1702338843575646700,102.13564672851562,0.5888000130653381,-0.007799999788403511,0.005499999970197678
1702338843675664400,102.23566430664063,0.5789999961853027,-0.0072999997064471245,0.005499999970197678
1702338843775954000,102.33595385742187,0.5691999793052673,0.002699999837204814,-0.002699999837204814
1702338843875942000,102.43594189453125,0.6083999872207642,0.002699999837204814,-0.0015999999595806003
1702338843975646000,102.53564599609375,0.5593999624252319,0.003399999812245369,0.0142000000923872
1702338844075629800,102.6356298828125,0.5593999624252319,-0.008100000210106373,0.013899999670684338
1702338844175662300,102.73566235351562,0.5985999703407288,0.0011999999405816197,0.014599999412894249
1702338844275666000,102.835666015625,0.6085000038146973,0.010699999518692493,0.0026000000070780516
1702338844375683600,102.93568359375,0.5888999700546265,0.010400000028312206,0.012000000104308128
1702338844476111600,103.03611157226563,0.5789999961853027,0.000699999975040555,0.01489999983459711
1702338844576196000,103.13619604492187,0.5789999961853027,-0.006199999712407589,-0.002699999837204814
1702338844675691300,103.23569116210938,0.5789999961853027,-0.004799999762326479,0.006599999964237213
1702338844776038100,103.3360380859375,0.5985999703407288,-0.0050999997183680534,0.006599999964237213
1702338844875653400,103.4356533203125,0.5888000130653381,0.0139999995008111,0.0066999997943639755
1702338844975665400,103.53566552734375,0.5789999961853027,-0.005799999926239252,0.005200000014156103
1702338845075847200,103.63584716796875,0.5791000127792358,-0.025100000202655792,0.022499999031424522
1702338845175665400,103.73566552734376,0.5789999961853027,-0.0066999997943639755,-0.005699999630451202
1702338845275677000,103.83567700195313,0.5986999869346619,-0.006000000052154064,0.02329999953508377
1702338845375666000,103.935666015625,0.6182999610900879,0.004999999888241291,0.004100000020116568
1702338845475683600,104.03568359375,0.6085000038146973,0.023099999874830246,0.003700000001117587
1702338845575672600,104.13567260742188,0.6085000038146973,0.0015999999595806003,-0.0052999998442828655
1702338845676075300,104.2360751953125,0.6182999610900879,0.010300000198185444,-0.00419999985024333
1702338845775646000,104.33564599609375,0.5789999961853027,-0.0008999999845400453,-0.0018999999156221747
1702338845875903500,104.43590356445313,0.5985999703407288,-0.0016999999061226845,0.01679999940097332
1702338845975880000,104.5358798828125,0.5888000130653381,-0.019700000062584877,-0.011399999260902405
1702338846075908000,104.635908203125,0.5985999703407288,-0.01889999955892563,-0.0011999999405816197
1702338846175677400,104.73567749023438,0.5888000130653381,-0.01850000023841858,0.0066999997943639755
1702338846275921200,104.83592114257813,0.5789999961853027,-0.007699999958276749,0.0142000000923872
1702338846375653400,104.9356533203125,0.6182999610900879,-0.006599999964237213,0.02290000021457672
1702338846475710700,105.03571069335938,0.5986999869346619,0.0037999998312443495,-0.006799999624490738
1702338846575712300,105.13571215820312,0.5986999869346619,-0.0050999997183680534,0.0010999999940395355
1702338846675651300,105.2356513671875,0.5888999700546265,-0.02290000021457672,0.010799999348819256
1702338846775703800,105.33570385742188,0.5888999700546265,-0.0031999999191612005,0.0010999999940395355
1702338846875860700,105.43586083984376,0.5888999700546265,-0.002899999963119626,0.010499999858438969
1702338846976434200,105.53643408203125,0.6085000038146973,-0.00279999990016222,-0.0005999999702908099
1702338847075681500,105.635681640625,0.5888999700546265,-0.013100000098347664,0.010499999858438969
1702338847175665400,105.73566552734376,0.5888999700546265,-0.004399999976158142,0.02029999904334545
1702338847275949300,105.83594921875,0.5496999621391296,-0.031199999153614044,0.019899999722838402
1702338847376227800,105.93622778320312,0.5791000127792358,-0.010799999348819256,-0.007899999618530273
1702338847476555000,106.03655493164062,0.5888999700546265,-0.00969999935477972,-0.007199999876320362
1702338847576233000,106.13623291015625,0.6280999779701233,-0.008999999612569809,0.012000000104308128
1702338847675683000,106.23568310546875,0.5986999869346619,0.029399998486042023,-0.016599999740719795
1702338847775639800,106.33563989257813,0.5986999869346619,0.006799999624490738,0.013399999588727951
1702338847875661800,106.43566186523438,0.5692999958992004,-0.003499999875202775,-0.006399999838322401
1702338847975643000,106.53564282226563,0.5888999700546265,0.00419999985024333,0.01119999960064888
1702338848075668500,106.63566845703124,0.559499979019165,-0.024399999529123306,0.011500000022351742
1702338848176095500,106.73609545898438,0.6085000038146973,0.005399999674409628,-0.007899999618530273
1702338848275642400,106.83564233398438,0.5791000127792358,-0.0032999999821186066,0.020600000396370888
1702338848375863300,106.93586328125,0.5888999700546265,-0.013399999588727951,0.002899999963119626
1702338848475677000,107.03567700195312,0.5791000127792358,-0.013399999588727951,-0.005699999630451202
1702338848575693000,107.13569311523437,0.6085000038146973,0.013700000010430813,-0.0052999998442828655
1702338848676435200,107.23643530273438,0.6085000038146973,-0.005200000014156103,0.013399999588727951
1702338848775682000,107.33568212890626,0.5986999869346619,-0.021800000220537186,0.02290000021457672
1702338848875647700,107.43564770507813,0.5986999869346619,0.016200000420212746,0.00139999995008111
1702338848976130600,107.53613061523437,0.5791000127792358,-0.0024999999441206455,-0.007199999876320362
1702338849075698200,107.6356982421875,0.5986999869346619,-0.010900000110268593,0.011299999430775642
1702338849175638800,107.735638671875,0.5791000127792358,0.01769999973475933,0.0026000000070780516
1702338849275689700,107.83568969726562,0.5789999961853027,-0.024299999698996544,0.0050999997183680534
1702338849375670000,107.935669921875,0.5986999869346619,0.00559999980032444,0.004399999976158142
1702338849475688200,108.03568823242188,0.5791000127792358,-0.0044999998062849045,-0.006399999838322401
1702338849575848700,108.1358486328125,0.5791000127792358,-0.005499999970197678,0.021699998527765274
1702338849675693000,108.23569311523437,0.5791000127792358,0.00419999985024333,0.010799999348819256
1702338849776212200,108.33621215820312,0.5888999700546265,-0.0142000000923872,0
1702338849875655400,108.43565551757813,0.6085000038146973,-0.012299999594688416,-0.009800000116229057
1702338849975641900,108.53564184570313,0.5888999700546265,0.007199999876320362,0.010499999858438969
1702338850075658000,108.63565795898438,0.5791000127792358,-0.012299999594688416,-0.016999999061226845
1702338850175649300,108.73564916992187,0.5692999958992004,0.006799999624490738,-0.006799999624490738
1702338850275637800,108.8356376953125,0.559499979019165,-0.0024999999441206455,0.01269999984651804
1702338850375648300,108.93564819335937,0.5888999700546265,-0.003599999938160181,-0.004600000102072954
1702338850475640300,109.03564038085938,0.5791000127792358,-0.021699998527765274,0.012999999336898327
1702338850575649800,109.13564990234374,0.5888999700546265,-0.0009999999310821295,-0.006899999920278788
1702338850675641300,109.23564135742187,0.559499979019165,-0.008599999360740185,-0.007599999662488699
1702338850775787300,109.33578735351563,0.5496999621391296,-0.02709999866783619,0.002099999925121665
1702338850875980500,109.43598046875,0.5791000127792358,-0.007499999832361937,0.009999999776482582
1702338850975691300,109.53569116210937,0.5791000127792358,0.010499999858438969,0.02019999921321869
1702338851075672600,109.63567260742188,0.5986999869346619,0.010099999606609344,0.00019999999494757503
1702338851175888400,109.73588842773438,0.5692999958992004,0.01730000041425228,-0.007999999448657036
1702338851275685000,109.83568505859375,0.5692999958992004,0.00419999985024333,-0.007999999448657036
1702338851375640300,109.93564038085937,0.5692999958992004,0.004600000102072954,-0.016300000250339508
1702338851475954400,110.03595434570312,0.5789999961853027,-0.004699999932199717,-0.004999999888241291
1702338851575668000,110.13566796875,0.5789999961853027,-0.005499999970197678,0.004999999888241291
1702338851675684600,110.2356845703125,0.5888999700546265,0.004600000102072954,0.013399999588727951
1702338851775680000,110.33567993164063,0.5691999793052673,0.0052999998442828655,-0.005699999630451202
1702338851875663400,110.43566333007813,0.6085000038146973,-0.004799999762326479,-0.006799999624490738
1702338851975645000,110.53564501953124,0.5888999700546265,-0.0142000000923872,0.002199999988079071
1702338852075837200,110.63583715820313,0.5692999958992004,-0.0142000000923872,0.011599999852478504
1702338852175648300,110.73564819335938,0.5692999958992004,0.015099999494850636,-0.008299999870359898
1702338852275912200,110.835912109375,0.5888999700546265,-0.004399999976158142,-0.008999999612569809
1702338852375954000,110.93595385742188,0.5791000127792358,0.014699999243021011,-0.008299999870359898
1702338852475683600,111.03568359375,0.5791000127792358,-0.005200000014156103,0.010900000110268593
1702338852575683000,111.13568310546874,0.5791000127792358,0.002699999837204814,0.0017999999690800905
1702338852675842300,111.23584228515625,0.5888999700546265,-0.024399999529123306,0.002899999963119626
1702338852775682600,111.3356826171875,0.5888999700546265,-0.013799999840557575,0.01269999984651804
1702338852875650800,111.43565087890624,0.5888999700546265,-0.003599999938160181,0.002899999963119626
1702338852975652400,111.53565234375,0.5986999869346619,-0.0050999997183680534,0.021800000220537186
1702338853075922700,111.63592260742188,0.5888999700546265,-0.012799999676644802,0.0032999999821186066
1702338853175961600,111.73596166992188,0.5791000127792358,0.005699999630451202,0.002199999988079071
1702338853275959600,111.83595947265626,0.5791000127792358,0.003499999875202775,0.020999999716877937
1702338853375667000,111.9356669921875,0.5888999700546265,-0.005799999926239252,0.019899999722838402
1702338853475850200,112.03585034179687,0.5791000127792358,-0.005499999970197678,0.012299999594688416
1702338853575627800,112.13562768554688,0.5692999958992004,-0.02449999935925007,0.0009999999310821295
1702338853675650800,112.23565087890626,0.5791000127792358,-0.04169999808073044,0.000699999975040555
1702338853775638800,112.335638671875,0.5791000127792358,0.009099999442696571,-0.008700000122189522
1702338853875661000,112.4356611328125,0.5791000127792358,0.000699999975040555,-0.007899999618530273
1702338853975884500,112.53588452148438,0.5692999958992004,0.001500000013038516,0.00139999995008111
1702338854075662800,112.63566284179687,0.5888999700546265,0.020399998873472214,0.002099999925121665
1702338854175647200,112.73564721679688,0.559499979019165,0.009099999442696571,0.0031999999191612005
1702338854275630300,112.83563037109376,0.5888999700546265,0.007199999876320362,0.003999999724328518
1702338854375890400,112.93589038085938,0.5791000127792358,0.00419999985024333,0.013799999840557575
1702338854475891000,113.03589086914063,0.5888999700546265,-0.004399999976158142,0.002899999963119626
1702338854575662300,113.13566235351563,0.5692999958992004,-0.02290000021457672,-0.008299999870359898
1702338854675645000,113.23564501953125,0.5986999869346619,0.006399999838322401,-0.007499999832361937
1702338854776166000,113.33616577148437,0.5791000127792358,0.007999999448657036,0.02029999904334545
1702338854875879000,113.43587890625,0.5791000127792358,-0.0009999999310821295,0.009499999694526196
1702338854975655000,113.53565502929688,0.5986999869346619,0.007199999876320362,0.009800000116229057
1702338855075722800,113.63572265625,0.5888999700546265,-0.003999999724328518,0.0010999999940395355
1702338855175669000,113.7356689453125,0.5692999958992004,0.004900000058114529,0.00139999995008111
1702338855275652400,113.83565234375,0.5986999869346619,-0.004699999932199717,0.0017999999690800905
1702338855375925800,113.93592578125,0.5888999700546265,0.004999999888241291,0.0026000000070780516
1702338855475659500,114.03565942382812,0.6182999610900879,-0.003999999724328518,0.002899999963119626
1702338855575635200,114.13563525390624,0.5888999700546265,-0.0032999999821186066,0.0017999999690800905
1702338855675889400,114.23588940429687,0.5692999958992004,0.009099999442696571,0.01119999960064888
1702338855775645000,114.33564501953126,0.6085000038146973,0.01769999973475933,0.0024999999441206455
1702338855875650300,114.435650390625,0.5888999700546265,0.008700000122189522,0.002099999925121665
1702338855975821000,114.53582104492187,0.559499979019165,-0.012399999424815178,0.01269999984651804
1702338856075684600,114.6356845703125,0.5888999700546265,-0.011599999852478504,0.003999999724328518
1702338856175691300,114.73569116210938,0.5791000127792358,-0.013899999670684338,0.02290000021457672
1702338856275659000,114.83565893554687,0.5986999869346619,0.016300000250339508,-0.01549999974668026
1702338856375683000,114.93568310546875,0.5986999869346619,0.013199999928474426,-0.004900000058114529
1702338856475661000,115.0356611328125,0.5986999869346619,-0.014299999922513962,0.005499999970197678
1702338856575860200,115.13586010742188,0.5986999869346619,-0.01599999889731407,0.004399999976158142
1702338856675940900,115.23594091796875,0.5986999869346619,0.003399999812245369,-0.0052999998442828655
1702338856775686700,115.33568676757812,0.5692999958992004,-0.015199999324977398,0.0032999999821186066
1702338856875644400,115.43564453125,0.5888999700546265,-0.013799999840557575,0.022499999031424522
1702338856975658500,115.53565844726562,0.5791000127792358,-0.004399999976158142,-0.007999999448657036
1702338857075637200,115.63563720703125,0.5986999869346619,-0.003000000026077032,0.0024999999441206455
1702338857175926300,115.73592626953125,0.5888999700546265,-0.002199999988079071,0.0024999999441206455
1702338857275680500,115.83568041992187,0.5888999700546265,0.005699999630451202,0.022199999541044235
1702338857375654000,115.93565380859376,0.5691999793052673,0.006099999882280827,-0.014399999752640724
1702338857475688700,116.03568872070312,0.5986999869346619,-0.015199999324977398,0.005499999970197678
1702338857575643000,116.13564282226562,0.5691999793052673,-0.006099999882280827,0.0058999997563660145
1702338857675660000,116.23565991210937,0.6083999872207642,-0.007699999958276749,0.006300000008195639
1702338857775662300,116.33566235351563,0.5985999703407288,0.004600000102072954,0.0058999997563660145
1702338857875939800,116.43593994140625,0.6085000038146973,-0.0031999999191612005,0.013399999588727951
1702338857975870500,116.53587036132812,0.5888999700546265,-0.0017999999690800905,0.012600000016391277
1702338858075711700,116.63571166992188,0.5791000127792358,-0.019500000402331352,0.021399999037384987
1702338858175858700,116.73585864257812,0.6085000038146973,0.0026000000070780516,0.010400000028312206
1702338858276180000,116.83617993164063,0.5888999700546265,-0.007499999832361937,-0.008299999870359898
1702338858376200700,116.93620068359375,0.5692999958992004,0.03909999877214432,-0.008299999870359898
1702338858475668000,117.03566796875,0.5888999700546265,0.001500000013038516,-0.008299999870359898
1702338858576133600,117.13613354492188,0.5888999700546265,-0.008200000040233135,0.020999999716877937
1702338858675668500,117.23566845703125,0.5692999958992004,0.00039999998989515007,0.002099999925121665
1702338858775961000,117.33596118164063,0.5791000127792358,-0.01769999973475933,0.011599999852478504
1702338858875882000,117.43588208007813,0.5496999621391296,-0.016300000250339508,0.010799999348819256
1702338858975661000,117.5356611328125,0.5986999869346619,0.002899999963119626,0.0009999999310821295
1702338859075647200,117.63564721679687,0.5692999958992004,0.011599999852478504,0.008599999360740185
1702338859175918600,117.73591870117187,0.5986999869346619,0.002300000051036477,0.008599999360740185
1702338859276009700,117.836009765625,0.5692999958992004,0.019199999049305916,-0.011299999430775642
1702338859375676200,117.93567626953126,0.5692999958992004,-0.009800000116229057,0.008599999360740185
1702338859475687700,118.03568774414063,0.6085999608039856,0.008299999870359898,0.0066999997943639755
1702338859575666000,118.135666015625,0.5888999700546265,-0.010799999348819256,-0.009800000116229057
1702338859675673600,118.23567358398438,0.5986999869346619,-0.002199999988079071,0.00930000003427267
1702338859775668500,118.33566845703125,0.5986999869346619,-0.002099999925121665,0.018799999728798866
1702338859875935200,118.43593530273438,0.5791000127792358,0.0066999997943639755,0
1702338859975641300,118.53564135742188,0.5986999869346619,0.007899999618530273,0.011599999852478504
1702338860076172500,118.63617260742187,0.5888999700546265,0.0064999996684491634,0.010499999858438969
1702338860175935200,118.73593530273438,0.5791000127792358,-0.012799999676644802,0.010799999348819256
1702338860275667500,118.83566748046874,0.5692999958992004,-0.020600000396370888,0.002099999925121665
1702338860375686100,118.93568603515625,0.5888999700546265,0.008599999360740185,0.020600000396370888
1702338860477608000,119.03760791015625,0.5791000127792358,0.008599999360740185,0.00139999995008111
1702338860575709200,119.13570922851562,0.5791000127792358,-0.0005999999702908099,0.01269999984651804
1702338860675667500,119.23566748046875,0.5888999700546265,0.01759999990463257,0.002899999963119626
1702338860775685000,119.33568505859375,0.5986999869346619,0.014999999664723873,-0.007599999662488699
1702338860875647700,119.43564770507813,0.5791000127792358,-0.003999999724328518,0.011899999342858791
1702338860975655400,119.53565551757812,0.559499979019165,-0.013599999248981476,-0.007599999662488699
1702338861075892000,119.63589208984375,0.5791000127792358,-0.003599999938160181,0.002899999963119626
1702338861175668500,119.73566845703125,0.5986999869346619,-0.004299999680370092,0.004399999976158142
1702338861275663400,119.83566333007812,0.5986999869346619,0.025699999183416367,0.004399999976158142
1702338861375678000,119.93567797851563,0.5888000130653381,0.004900000058114529,0.005799999926239252
1702338861475683000,120.03568310546875,0.5691999793052673,0.01209999993443489,0.00699999975040555
1702338861575681500,120.135681640625,0.5985999703407288,-0.007400000002235174,0.01679999940097332
1702338861676152300,120.23615234375,0.5986999869346619,0.0037999998312443495,0.004399999976158142
1702338861775675100,120.33567504882812,0.5986999869346619,-0.016099998727440834,0.004399999976158142
1702338861875659000,120.43565893554687,0.5888999700546265,0.0030999998562037945,0.013399999588727951
1702338861975649800,120.53564990234375,0.5692999958992004,0.0052999998442828655,0.0024999999441206455
1702338862075981600,120.63598168945313,0.5692999958992004,-0.003599999938160181,0.00139999995008111
