time,seconds_elapsed,z,y,x
1702338741652350700,0.212350830078125,9.050082206726074,2.451662540435791,1.2641384601593018
1702338741752336600,0.312336669921875,12.440272331237793,1.139639973640442,1.8291701078414917
1702338741852353800,0.412353759765625,9.787496566772461,1.9249382019042969,1.3120225667953491
1702338741952340000,0.512340087890625,9.835380554199219,2.279279947280884,0.8619126081466675
1702338742052358700,0.612358642578125,10.247182846069336,2.183511972427368,0.9959878921508789
1702338742152360200,0.712360107421875,10.170568466186523,2.470816135406494,1.9345149993896484
1702338742252360200,0.812360107421875,9.509769439697266,2.3942017555236816,1.2545616626739502
1702338742352346000,0.91234619140625,9.490615844726562,1.6663644313812256,1.6376339197158813
1702338742452332000,1.01233203125,10.639832496643066,3.3039982318878174,1.8579005002975464
1702338742552349200,1.11234912109375,4.060565948486328,2.2026655673980713,3.246537446975708
1702338742652335000,1.212335205078125,8.916007041931152,2.806004285812378,4.252102375030518
1702338742752369400,1.312369384765625,7.7763671875,1.580173134803772,6.675034523010254
1702338742852338200,1.412338134765625,10.065223693847656,3.3710360527038574,1.800439715385437
1702338742952355600,1.51235546875,9.423578262329102,3.6774938106536865,1.1109095811843872
1702338743052341500,1.612341552734375,10.35252857208252,1.742978811264038,2.030282974243164
1702338743152358700,1.712358642578125,10.256759643554688,3.3231520652770996,2.470816135406494
1702338743252346000,1.81234619140625,8.149862289428711,3.332728862762451,0.5650315880775452
1702338743352377300,1.91237744140625,8.303091049194336,5.420472621917725,1.0438719987869263
1702338743452347600,2.01234765625,10.448296546936035,2.8443117141723633,0.009576806798577309
1702338743552333600,2.11233349609375,10.046070098876953,3.064578056335449,0.28730419278144836
1702338743652350700,2.212350830078125,9.318233489990234,3.974374771118164,0
1702338743752336600,2.312336669921875,10.879252433776855,3.7158010005950928,1.1109095811843872
1702338743852353800,2.412353759765625,9.576807022094727,3.8498764038085938,1.522712230682373
1702338743952357000,2.512357177734375,8.149862289428711,3.5913026332855225,0.4213795065879822
1702338744052357000,2.612357177734375,10.103530883789062,2.738966703414917,2.1164743900299072
1702338744152343000,2.712343017578125,9.47146224975586,2.9305028915405273,0.8044517636299133
1702338744252360200,2.812360107421875,9.519346237182617,3.227383852005005,0.5554547905921936
1702338744353117400,2.913117431640625,9.59596061706543,2.786850690841675,1.216254472732544
1702338744453102300,3.013102294921875,9.758766174316406,2.164358377456665,-0.545877993106842
1702338744553122000,3.1131220703125,9.404424667358398,2.959233283996582,0.20111294090747833
1702338744653103900,3.213103759765625,11.233593940734863,1.2449848651885986,1.436521053314209
1702338744753121000,3.31312109375,8.676587104797363,1.1779472827911377,0.43095630407333374
1702338744853106400,3.4131064453125,14.499285697937012,3.07415509223938,-0.5554547905921936
1702338744953124000,3.5131240234375,9.873687744140625,0.7757213711738586,-0.6512228846549988
1702338745053108000,3.61310791015625,8.973467826843262,2.279279947280884,-2.5282769203186035
1702338745153132500,3.713132568359375,12.72757625579834,1.6280571222305298,-1.158793568611145
1702338745253117000,3.813116943359375,10.467450141906738,1.2066776752471924,-1.2545616626739502
1702338745353139200,3.91313916015625,12.947842597961426,1.7908629179000854,-2.097320795059204
1702338745453125400,4.01312548828125,8.71489429473877,1.7812861204147339,-6.588842868804932
1702338745553108000,4.11310791015625,7.90086555480957,0.8236053586006165,-2.1356279850006104
1702338745653126400,4.21312646484375,6.799532890319824,0.7565677165985107,2.2218191623687744
1702338745753111800,4.31311181640625,7.948749542236328,0.5841852426528931,4.338293552398682
1702338745853127400,4.41312744140625,8.341399192810059,-1.6280571222305298,2.5474305152893066
1702338745953117400,4.513117431640625,7.2113356590271,-1.1300631761550903,3.3231520652770996
1702338746053135000,4.613135009765625,10.72602367401123,0.26815059781074524,2.097320795059204
1702338746153130000,4.7131298828125,9.921571731567383,-0.363918662071228,0.6512228846549988
1702338746253138700,4.813138671875,9.02135181427002,0.22026655077934265,-1.0534487962722778
1702338746353123600,4.91312353515625,10.27591323852539,0.31603461503982544,-1.1204863786697388
1702338746453141500,5.0131416015625,9.835380554199219,-0.49799394607543945,-0.3926490843296051
1702338746553128400,5.11312841796875,10.266336441040039,-0.5267243981361389,1.1779472827911377
1702338746653111300,5.213111328125,10.802638053894043,-1.1109095811843872,0.5363011956214905
1702338746753122000,5.3131220703125,10.390835762023926,0.1628057211637497,-1.1492167711257935
1702338746853108000,5.41310791015625,10.41956615447998,-0.6703764796257019,1.6663644313812256
1702338746953124000,5.5131240234375,10.180145263671875,0.5363011956214905,-1.1013327836990356
1702338747053111800,5.61311181640625,10.074800491333008,-1.50355863571167,-0.09576806426048279
1702338747153126400,5.71312646484375,10.496180534362793,-0.05746084079146385,1.1971008777618408
1702338747253114400,5.8131142578125,9.797073364257812,-0.5363011956214905,1.656787633895874
1702338747353133000,5.913133056640625,9.002198219299316,1.015141487121582,-0.6416460275650024
1702338747453117400,6.013117431640625,9.998186111450195,0.06703764945268631,0.26815059781074524
1702338747553105400,6.11310546875,10.333374977111816,-0.1628057211637497,0.49799394607543945
1702338747653126400,6.21312646484375,10.218452453613281,-0.31603461503982544,-0.06703764945268631
1702338747753108000,6.31310791015625,10.371682167053223,-0.1149216815829277,-0.15322890877723694
1702338747853124000,6.4131240234375,9.873687744140625,-0.38307225704193115,0.19153612852096558
1702338747953112300,6.5131123046875,9.96945571899414,-0.181959331035614,-0.05746084079146385
1702338748053133000,6.613133056640625,10.333374977111816,-1.1779472827911377,0.8523358106613159
1702338748153125400,6.71312548828125,10.27591323852539,-0.9002198576927185,1.2258312702178955
1702338748253132500,6.813132568359375,10.505757331848145,-0.4692635238170624,0.507570743560791
1702338748353124600,6.91312451171875,10.160991668701172,-1.3503297567367554,1.0630255937576294
1702338748453798100,7.013798095703125,10.055646896362305,-0.727837324142456,-0.047884032130241394
1702338748553127400,7.11312744140625,11.176133155822754,0.38307225704193115,0.06703764945268631
1702338748653109500,7.213109619140625,10.553641319274902,1.4748282432556152,0.12449848651885986
1702338748753128400,7.31312841796875,10.342951774597168,0.9097966551780701,-0.181959331035614
1702338748853111300,7.413111328125,10.256759643554688,-0.3926490843296051,-1.7046716213226318
1702338748953128000,7.5131279296875,8.609549522399902,0.6033388376235962,-2.691082715988159
1702338749053111800,7.61311181640625,9.576807022094727,1.2832920551300049,-3.7253777980804443
1702338749153131500,7.713131591796875,9.615114212036133,1.139639973640442,-2.365471363067627
1702338749253122000,7.8131220703125,9.308655738830566,0.7565677165985107,-2.738966703414917
1702338749353152800,7.91315283203125,9.634267807006836,0.3926490843296051,-3.4763808250427246
1702338749453118500,8.013118408203125,10.132261276245117,0.2106897532939911,-2.212242364883423
1702338749553105000,8.11310498046875,10.007762908935547,-0.7757213711738586,-0.545877993106842
1702338749653121500,8.21312158203125,9.77791976928711,-1.4460978507995605,-1.3407529592514038
1702338749753105400,8.31310546875,11.865663528442383,-1.1204863786697388,-1.1875240802764893
1702338749853147100,8.413147216796874,9.797073364257812,-0.5171475410461426,-1.2258312702178955
1702338749953112800,8.51311279296875,-1.3120225667953491,-1.647210717201233,-0.6703764796257019
1702338750053128400,8.61312841796875,10.093954086303711,-0.08619125932455063,0.05746084079146385
1702338750153114400,8.7131142578125,9.940725326538086,-0.019153613597154617,0.14365209639072418
1702338750253129500,8.81312939453125,10.8505220413208,-0.1628057211637497,0.17238251864910126
1702338750353138700,8.913138671875,10.228029251098633,-0.038307227194309235,0.09576806426048279
1702338750453154300,9.013154296875,10.113107681274414,-0.038307227194309235,0.1149216815829277
1702338750553139200,9.11313916015625,10.141838073730469,-0.019153613597154617,0.10534487664699554
1702338750653126400,9.21312646484375,10.15141487121582,-0.019153613597154617,0.1149216815829277
1702338750753124000,9.3131240234375,10.180145263671875,-0.047884032130241394,0.10534487664699554
1702338750853110800,9.41311083984375,10.180145263671875,-0.019153613597154617,0.09576806426048279
1702338750953960200,9.513960205078124,10.170568466186523,-0.019153613597154617,0.09576806426048279
1702338751053111800,9.61311181640625,10.160991668701172,-0.019153613597154617,0.1149216815829277
1702338751153129500,9.71312939453125,10.160991668701172,-0.019153613597154617,0.10534487664699554
1702338751253137200,9.81313720703125,10.160991668701172,-0.038307227194309235,0.09576806426048279
1702338751353149200,9.913149169921875,10.160991668701172,-0.019153613597154617,0.09576806426048279
1702338751453135600,10.013135498046875,10.180145263671875,-0.019153613597154617,0.09576806426048279
1702338751553123000,10.113123046875,10.141838073730469,-0.028730420395731926,0.12449848651885986
1702338751653145000,10.21314501953125,10.15141487121582,-0.019153613597154617,0.10534487664699554
1702338751753151700,10.31315185546875,10.141838073730469,-0.038307227194309235,0.1149216815829277
1702338751853148200,10.413148193359374,10.170568466186523,-0.038307227194309235,0.09576806426048279
1702338751953115400,10.513115478515624,10.160991668701172,-0.028730420395731926,0.08619125932455063
1702338752053127000,10.613126953125,10.141838073730469,-0.05746084079146385,0.12449848651885986
1702338752153126000,10.7131259765625,10.199298858642578,-0.028730420395731926,0.10534487664699554
1702338752253154300,10.813154296875,10.15141487121582,-0.038307227194309235,0.12449848651885986
1702338752353183000,10.913182861328124,10.180145263671875,-0.019153613597154617,0.09576806426048279
1702338752453133600,11.013133544921875,10.170568466186523,0,0.1149216815829277
1702338752553126000,11.1131259765625,10.170568466186523,-0.019153613597154617,0.10534487664699554
1702338752653103400,11.213103271484375,10.141838073730469,-0.047884032130241394,0.13407529890537262
1702338752753121000,11.31312109375,10.141838073730469,-0.019153613597154617,0.10534487664699554
1702338752853129500,11.41312939453125,10.15141487121582,-0.047884032130241394,0.10534487664699554
1702338752953962800,11.513962646484375,10.189722061157227,-0.019153613597154617,0.09576806426048279
1702338753053114400,11.6131142578125,10.199298858642578,-0.028730420395731926,0.10534487664699554
1702338753153145000,11.71314501953125,10.15141487121582,-0.019153613597154617,0.09576806426048279
1702338753253135000,11.813135009765626,10.141838073730469,-0.028730420395731926,0.1149216815829277
1702338753353152300,11.91315234375,10.180145263671875,-0.019153613597154617,0.09576806426048279
1702338753453134600,12.013134521484375,10.189722061157227,-0.038307227194309235,0.09576806426048279
1702338753553102300,12.113102294921875,10.160991668701172,-0.009576806798577309,0.08619125932455063
1702338753653123000,12.213123046875,10.170568466186523,-0.028730420395731926,0.09576806426048279
1702338753753105000,12.31310498046875,10.180145263671875,-0.038307227194309235,0.10534487664699554
1702338753853151200,12.413151123046875,10.160991668701172,-0.038307227194309235,0.1149216815829277
1702338753953124000,12.5131240234375,10.199298858642578,-0.009576806798577309,0.08619125932455063
1702338754053169000,12.6131689453125,10.189722061157227,-0.038307227194309235,0.09576806426048279
1702338754153129500,12.71312939453125,10.113107681274414,-0.038307227194309235,0.08619125932455063
1702338754253147100,12.813147216796875,10.160991668701172,-0.038307227194309235,0.10534487664699554
1702338754353132000,12.913132080078125,10.189722061157227,-0.028730420395731926,0.07661445438861847
1702338754453150200,13.013150146484374,10.170568466186523,-0.038307227194309235,0.10534487664699554
1702338754553135000,13.113135009765625,10.160991668701172,-0.038307227194309235,0.10534487664699554
1702338754653122600,13.21312255859375,10.180145263671875,-0.028730420395731926,0.09576806426048279
1702338754753146000,13.31314599609375,10.160991668701172,-0.047884032130241394,0.10534487664699554
1702338754853210600,13.413210693359375,10.15141487121582,-0.028730420395731926,0.09576806426048279
1702338754953124600,13.51312451171875,10.122684478759766,-0.019153613597154617,0.10534487664699554
1702338755053110800,13.61311083984375,10.170568466186523,-0.06703764945268631,0.09576806426048279
1702338755153147600,13.713147705078125,10.15141487121582,-0.028730420395731926,0.08619125932455063
1702338755253134600,13.813134521484375,10.141838073730469,-0.047884032130241394,0.09576806426048279
1702338755353447700,13.91344775390625,10.160991668701172,-0.047884032130241394,0.08619125932455063
1702338755453134000,14.013134033203125,10.15141487121582,-0.038307227194309235,0.10534487664699554
1702338755553148200,14.113148193359375,10.160991668701172,-0.028730420395731926,0.1149216815829277
1702338755653141000,14.21314111328125,10.15141487121582,-0.019153613597154617,0.08619125932455063
1702338755753147100,14.313147216796875,10.160991668701172,-0.047884032130241394,0.10534487664699554
1702338755853146000,14.41314599609375,10.160991668701172,-0.028730420395731926,0.10534487664699554
1702338755953109000,14.51310888671875,10.199298858642578,-0.047884032130241394,0.09576806426048279
1702338756053959700,14.613959716796876,10.141838073730469,-0.028730420395731926,0.07661445438861847
1702338756153132500,14.713132568359375,10.141838073730469,-0.038307227194309235,0.10534487664699554
1702338756253151700,14.81315185546875,10.189722061157227,-0.019153613597154617,0.07661445438861847
1702338756353130500,14.913130615234374,10.132261276245117,-0.038307227194309235,0.10534487664699554
1702338756453153800,15.01315380859375,10.160991668701172,-0.028730420395731926,0.09576806426048279
1702338756553134000,15.113134033203124,10.160991668701172,-0.047884032130241394,0.10534487664699554
1702338756653121500,15.21312158203125,10.160991668701172,-0.038307227194309235,0.12449848651885986
1702338756753137200,15.31313720703125,10.170568466186523,-0.028730420395731926,0.09576806426048279
1702338756853113900,15.41311376953125,10.189722061157227,-0.009576806798577309,0.06703764945268631
1702338756953127400,15.51312744140625,10.113107681274414,0,0.09576806426048279
1702338757053133600,15.613133544921874,10.160991668701172,-0.028730420395731926,0.09576806426048279
1702338757153145000,15.71314501953125,10.160991668701172,-0.028730420395731926,0.08619125932455063
1702338757253135000,15.813135009765626,10.15141487121582,-0.019153613597154617,0.10534487664699554
1702338757353153300,15.9131533203125,10.141838073730469,-0.009576806798577309,0.10534487664699554
1702338757453134000,16.013134033203126,10.170568466186523,-0.038307227194309235,0.10534487664699554
1702338757553163300,16.113163330078127,10.15141487121582,-0.019153613597154617,0.08619125932455063
1702338757653123600,16.21312353515625,10.180145263671875,-0.038307227194309235,0.10534487664699554
1702338757753104400,16.3131044921875,10.160991668701172,-0.038307227194309235,0.10534487664699554
1702338757853121500,16.41312158203125,10.132261276245117,-0.038307227194309235,0.09576806426048279
1702338757953109500,16.513109619140625,10.160991668701172,-0.047884032130241394,0.10534487664699554
1702338758053132000,16.613132080078124,10.160991668701172,-0.038307227194309235,0.07661445438861847
1702338758153117400,16.713117431640626,10.170568466186523,-0.019153613597154617,0.09576806426048279
1702338758253128000,16.8131279296875,10.15141487121582,-0.038307227194309235,0.10534487664699554
1702338758353124600,16.91312451171875,10.160991668701172,-0.047884032130241394,0.10534487664699554
1702338758453151700,17.01315185546875,10.170568466186523,-0.047884032130241394,0.08619125932455063
1702338758553136000,17.11313623046875,10.170568466186523,-0.038307227194309235,0.08619125932455063
1702338758653105000,17.21310498046875,10.15141487121582,-0.028730420395731926,0.09576806426048279
1702338758753132000,17.313132080078127,10.141838073730469,-0.038307227194309235,0.08619125932455063
1702338758853138200,17.41313818359375,10.199298858642578,-0.038307227194309235,0.06703764945268631
1702338758953124600,17.51312451171875,10.170568466186523,-0.028730420395731926,0.10534487664699554
1702338759053111800,17.61311181640625,10.160991668701172,-0.05746084079146385,0.10534487664699554
1702338759153128400,17.71312841796875,10.15141487121582,-0.028730420395731926,0.09576806426048279
1702338759253137700,17.8131376953125,10.15141487121582,-0.038307227194309235,0.10534487664699554
1702338759353153300,17.9131533203125,10.180145263671875,-0.038307227194309235,0.09576806426048279
1702338759453131000,18.013131103515626,10.180145263671875,-0.028730420395731926,0.12449848651885986
1702338759553152800,18.11315283203125,10.15141487121582,-0.038307227194309235,0.10534487664699554
1702338759653119500,18.213119384765626,10.160991668701172,-0.038307227194309235,0.09576806426048279
1702338759753113900,18.31311376953125,10.170568466186523,-0.028730420395731926,0.09576806426048279
1702338759855528400,18.415528564453126,10.15141487121582,-0.028730420395731926,0.10534487664699554
1702338759953109500,18.513109619140625,10.160991668701172,-0.038307227194309235,0.10534487664699554
1702338760053124600,18.61312451171875,10.180145263671875,-0.019153613597154617,0.08619125932455063
1702338760153111300,18.713111328125,10.15141487121582,-0.038307227194309235,0.08619125932455063
1702338760253129500,18.81312939453125,10.180145263671875,-0.019153613597154617,0.09576806426048279
1702338760353115000,18.913114990234376,10.170568466186523,-0.028730420395731926,0.09576806426048279
1702338760453149200,19.013149169921874,10.170568466186523,-0.038307227194309235,0.10534487664699554
1702338760553138700,19.113138671875,10.160991668701172,-0.019153613597154617,0.09576806426048279
1702338760653123600,19.21312353515625,10.141838073730469,-0.019153613597154617,0.10534487664699554
1702338760753139200,19.31313916015625,10.132261276245117,-0.019153613597154617,0.08619125932455063
1702338760853128400,19.41312841796875,10.15141487121582,-0.028730420395731926,0.09576806426048279
1702338760953124000,19.5131240234375,10.160991668701172,-0.047884032130241394,0.09576806426048279
1702338761053110300,19.6131103515625,10.189722061157227,-0.047884032130241394,0.10534487664699554
1702338761153127000,19.713126953125,10.170568466186523,-0.028730420395731926,0.10534487664699554
1702338761253112800,19.81311279296875,10.160991668701172,-0.047884032130241394,0.08619125932455063
1702338761353129500,19.91312939453125,10.15141487121582,-0.047884032130241394,0.10534487664699554
1702338761453135600,20.013135498046875,10.160991668701172,-0.019153613597154617,0.10534487664699554
1702338761553155600,20.113155517578125,10.15141487121582,-0.038307227194309235,0.09576806426048279
1702338761653137200,20.21313720703125,10.132261276245117,-0.028730420395731926,0.09576806426048279
1702338761753133000,20.313133056640623,10.141838073730469,-0.038307227194309235,0.10534487664699554
1702338761853491000,20.413490966796875,10.160991668701172,-0.028730420395731926,0.09576806426048279
1702338761953108500,20.5131083984375,10.170568466186523,-0.047884032130241394,0.09576806426048279
1702338762053127000,20.613126953125,10.189722061157227,-0.019153613597154617,0.09576806426048279
1702338762153120000,20.7131201171875,10.141838073730469,-0.019153613597154617,0.10534487664699554
1702338762253148700,20.813148681640627,10.160991668701172,-0.019153613597154617,0.10534487664699554
1702338762353132500,20.913132568359377,10.160991668701172,-0.028730420395731926,0.07661445438861847
1702338762453154800,21.01315478515625,10.180145263671875,-0.05746084079146385,0.09576806426048279
1702338762553138200,21.11313818359375,10.132261276245117,-0.019153613597154617,0.08619125932455063
1702338762653111800,21.21311181640625,10.15141487121582,-0.038307227194309235,0.09576806426048279
1702338762753141000,21.31314111328125,10.170568466186523,-0.038307227194309235,0.09576806426048279
1702338762853113900,21.41311376953125,10.141838073730469,-0.028730420395731926,0.10534487664699554
1702338762953124600,21.51312451171875,10.160991668701172,-0.019153613597154617,0.08619125932455063
1702338763053108000,21.61310791015625,10.160991668701172,-0.028730420395731926,0.09576806426048279
1702338763153137700,21.7131376953125,10.15141487121582,-0.028730420395731926,0.08619125932455063
1702338763253111800,21.81311181640625,10.170568466186523,-0.038307227194309235,0.10534487664699554
1702338763353138700,21.913138671875,10.141838073730469,-0.038307227194309235,0.08619125932455063
1702338763453134000,22.013134033203126,10.160991668701172,-0.028730420395731926,0.08619125932455063
1702338763553134600,22.113134521484376,10.15141487121582,-0.047884032130241394,0.10534487664699554
1702338763653127000,22.213126953125,10.189722061157227,-0.038307227194309235,0.08619125932455063
1702338763753125400,22.31312548828125,10.113107681274414,-0.019153613597154617,0.09576806426048279
1702338763853146600,22.413146728515624,10.132261276245117,-0.028730420395731926,0.10534487664699554
1702338763953123600,22.51312353515625,10.170568466186523,-0.028730420395731926,0.08619125932455063
1702338764053144600,22.61314453125,10.170568466186523,-0.038307227194309235,0.09576806426048279
1702338764153129000,22.71312890625,10.160991668701172,-0.019153613597154617,0.09576806426048279
1702338764253145000,22.81314501953125,10.170568466186523,-0.028730420395731926,0.08619125932455063
1702338764353131000,22.913131103515624,10.141838073730469,-0.028730420395731926,0.09576806426048279
1702338764453149200,23.013149169921874,10.160991668701172,-0.028730420395731926,0.09576806426048279
1702338764553134600,23.113134521484376,10.141838073730469,-0.038307227194309235,0.10534487664699554
1702338764653152300,23.21315234375,10.180145263671875,-0.019153613597154617,0.09576806426048279
1702338764753144000,23.31314404296875,10.15141487121582,-0.019153613597154617,0.09576806426048279
1702338764853113900,23.41311376953125,10.141838073730469,-0.028730420395731926,0.07661445438861847
1702338764953139700,23.5131396484375,10.141838073730469,-0.009576806798577309,0.08619125932455063
1702338765053126000,23.6131259765625,10.170568466186523,-0.019153613597154617,0.09576806426048279
1702338765153143600,23.7131435546875,10.15141487121582,-0.038307227194309235,0.08619125932455063
1702338765253131000,23.813131103515627,10.170568466186523,-0.028730420395731926,0.08619125932455063
1702338765353148700,23.913148681640624,10.15141487121582,-0.038307227194309235,0.10534487664699554
1702338765453160200,24.01316015625,10.180145263671875,-0.028730420395731926,0.10534487664699554
1702338765553153300,24.1131533203125,10.170568466186523,-0.019153613597154617,0.09576806426048279
1702338765653138700,24.213138671875,10.15141487121582,-0.028730420395731926,0.08619125932455063
1702338765753127400,24.31312744140625,10.160991668701172,-0.038307227194309235,0.09576806426048279
1702338765853127000,24.413126953125,10.15141487121582,-0.028730420395731926,0.09576806426048279
1702338765953117000,24.513116943359375,10.170568466186523,-0.038307227194309235,0.09576806426048279
1702338766053140500,24.613140380859374,10.113107681274414,-0.028730420395731926,0.08619125932455063
1702338766153127000,24.713126953125,10.160991668701172,-0.028730420395731926,0.09576806426048279
1702338766253148700,24.813148681640627,10.15141487121582,-0.038307227194309235,0.08619125932455063
1702338766353136000,24.91313623046875,10.15141487121582,-0.047884032130241394,0.09576806426048279
1702338766453153300,25.0131533203125,10.141838073730469,-0.038307227194309235,0.09576806426048279
1702338766553136000,25.11313623046875,10.160991668701172,-0.047884032130241394,0.13407529890537262
1702338766653154300,25.213154296875,10.170568466186523,-0.047884032130241394,0.10534487664699554
1702338766753138200,25.31313818359375,10.170568466186523,-0.028730420395731926,0.08619125932455063
1702338766853135000,25.413135009765625,10.15141487121582,-0.019153613597154617,0.07661445438861847
1702338766953123600,25.51312353515625,10.15141487121582,-0.047884032130241394,0.09576806426048279
1702338767053109000,25.61310888671875,10.160991668701172,-0.019153613597154617,0.09576806426048279
1702338767153126400,25.71312646484375,10.170568466186523,-0.038307227194309235,0.10534487664699554
1702338767253120500,25.81312060546875,10.170568466186523,-0.028730420395731926,0.10534487664699554
1702338767353156600,25.913156494140626,10.170568466186523,-0.028730420395731926,0.08619125932455063
1702338767453134000,26.013134033203126,10.170568466186523,-0.009576806798577309,0.09576806426048279
1702338767553152300,26.11315234375,10.160991668701172,-0.047884032130241394,0.08619125932455063
1702338767653120000,26.2131201171875,10.160991668701172,-0.038307227194309235,0.08619125932455063
1702338767753103400,26.313103271484376,10.160991668701172,-0.047884032130241394,0.08619125932455063
1702338767853121000,26.41312109375,10.141838073730469,-0.047884032130241394,0.09576806426048279
1702338767953123600,26.51312353515625,10.15141487121582,-0.028730420395731926,0.09576806426048279
1702338768053143600,26.6131435546875,10.122684478759766,-0.028730420395731926,0.08619125932455063
1702338768153127400,26.71312744140625,10.160991668701172,-0.028730420395731926,0.08619125932455063
1702338768253127400,26.81312744140625,10.170568466186523,-0.038307227194309235,0.08619125932455063
1702338768353112800,26.91311279296875,10.15141487121582,-0.019153613597154617,0.10534487664699554
1702338768453140500,27.013140380859376,10.160991668701172,-0.019153613597154617,0.07661445438861847
1702338768553136000,27.11313623046875,10.170568466186523,-0.019153613597154617,0.09576806426048279
1702338768653151700,27.21315185546875,10.170568466186523,-0.019153613597154617,0.10534487664699554
1702338768753160700,27.31316064453125,10.122684478759766,-0.028730420395731926,0.10534487664699554
1702338768853130000,27.4131298828125,10.15141487121582,-0.038307227194309235,0.10534487664699554
1702338768953122600,27.51312255859375,10.15141487121582,-0.038307227194309235,0.10534487664699554
1702338769053119000,27.613118896484377,10.170568466186523,-0.038307227194309235,0.09576806426048279
1702338769153150700,27.713150634765626,10.170568466186523,-0.028730420395731926,0.09576806426048279
1702338769253126000,27.8131259765625,10.266336441040039,-0.038307227194309235,0.1149216815829277
1702338769353173800,27.913173828125,10.160991668701172,0,0.06703764945268631
1702338769453124600,28.01312451171875,10.160991668701172,-0.038307227194309235,0.07661445438861847
1702338769553156600,28.113156494140625,10.15141487121582,-0.028730420395731926,0.09576806426048279
1702338769653138200,28.21313818359375,10.199298858642578,-0.038307227194309235,0.08619125932455063
1702338769753129500,28.31312939453125,10.15141487121582,-0.019153613597154617,0.06703764945268631
1702338769853151700,28.41315185546875,10.180145263671875,-0.038307227194309235,0.08619125932455063
1702338769953124000,28.5131240234375,10.170568466186523,-0.047884032130241394,0.09576806426048279
1702338770053142000,28.61314208984375,10.160991668701172,-0.019153613597154617,0.10534487664699554
1702338770153124000,28.7131240234375,10.15141487121582,-0.047884032130241394,0.08619125932455063
1702338770253141500,28.8131416015625,10.170568466186523,-0.047884032130241394,0.10534487664699554
1702338770353136600,28.91313671875,10.132261276245117,-0.028730420395731926,0.08619125932455063
1702338770453175800,29.01317578125,10.189722061157227,-0.038307227194309235,0.10534487664699554
1702338770553170000,29.113169921875,10.15141487121582,-0.019153613597154617,0.08619125932455063
1702338770653152800,29.21315283203125,10.160991668701172,-0.009576806798577309,0.10534487664699554
1702338770753143600,29.3131435546875,10.141838073730469,-0.047884032130241394,0.09576806426048279
1702338770853184500,29.4131845703125,10.189722061157227,-0.019153613597154617,0.07661445438861847
1702338770953141000,29.51314111328125,10.170568466186523,-0.028730420395731926,0.07661445438861847
1702338771053110300,29.6131103515625,10.15141487121582,-0.038307227194309235,0.10534487664699554
1702338771153124600,29.71312451171875,10.170568466186523,-0.038307227194309235,0.09576806426048279
1702338771253110300,29.8131103515625,10.170568466186523,-0.038307227194309235,0.09576806426048279
1702338771353128400,29.91312841796875,10.170568466186523,-0.028730420395731926,0.08619125932455063
1702338771453116000,30.013115966796875,10.132261276245117,-0.019153613597154617,0.08619125932455063
1702338771553131500,30.113131591796876,10.180145263671875,-0.019153613597154617,0.08619125932455063
1702338771653119500,30.213119384765626,10.199298858642578,-0.028730420395731926,0.07661445438861847
1702338771753113300,30.31311328125,10.15141487121582,-0.05746084079146385,0.09576806426048279
1702338771853128400,30.41312841796875,10.122684478759766,-0.028730420395731926,0.10534487664699554
1702338771953126000,30.5131259765625,10.180145263671875,-0.038307227194309235,0.10534487664699554
1702338772053148200,30.613148193359375,10.15141487121582,-0.047884032130241394,0.09576806426048279
1702338772153132500,30.713132568359374,10.141838073730469,-0.047884032130241394,0.10534487664699554
1702338772253147600,30.813147705078126,10.15141487121582,-0.019153613597154617,0.09576806426048279
1702338772353134000,30.913134033203125,10.180145263671875,-0.038307227194309235,0.09576806426048279
1702338772453145600,31.0131455078125,10.160991668701172,-0.038307227194309235,0.10534487664699554
1702338772553139200,31.11313916015625,10.170568466186523,-0.047884032130241394,0.07661445438861847
1702338772653133000,31.213133056640626,10.15141487121582,-0.047884032130241394,0.09576806426048279
1702338772753127000,31.313126953125,10.15141487121582,-0.019153613597154617,0.09576806426048279
1702338772853116000,31.413115966796877,10.160991668701172,-0.028730420395731926,0.09576806426048279
1702338772953122600,31.51312255859375,10.160991668701172,-0.038307227194309235,0.08619125932455063
1702338773053106000,31.61310595703125,10.132261276245117,-0.038307227194309235,0.07661445438861847
1702338773153125400,31.71312548828125,10.160991668701172,-0.038307227194309235,0.09576806426048279
1702338773253109500,31.813109619140626,10.180145263671875,-0.038307227194309235,0.08619125932455063
1702338773353133000,31.913133056640625,10.160991668701172,-0.019153613597154617,0.08619125932455063
1702338773453121500,32.01312158203125,10.189722061157227,-0.019153613597154617,0.10534487664699554
1702338773553153800,32.11315380859375,10.170568466186523,-0.019153613597154617,0.09576806426048279
1702338773653118500,32.21311840820312,10.15141487121582,-0.028730420395731926,0.09576806426048279
1702338773753154300,32.313154296875,10.15141487121582,-0.028730420395731926,0.08619125932455063
1702338773853123600,32.41312353515625,10.189722061157227,-0.019153613597154617,0.10534487664699554
1702338773953106000,32.51310595703125,10.122684478759766,-0.028730420395731926,0.10534487664699554
1702338774053124600,32.61312451171875,10.141838073730469,-0.038307227194309235,0.08619125932455063
1702338774153122600,32.71312255859375,10.160991668701172,-0.038307227194309235,0.10534487664699554
1702338774253148200,32.813148193359375,10.141838073730469,-0.028730420395731926,0.07661445438861847
1702338774353131500,32.913131591796876,10.141838073730469,-0.047884032130241394,0.08619125932455063
1702338774453147600,33.013147705078126,10.15141487121582,-0.038307227194309235,0.09576806426048279
1702338774553116000,33.113115966796876,10.170568466186523,-0.019153613597154617,0.08619125932455063
1702338774653132500,33.21313256835938,10.170568466186523,-0.019153613597154617,0.08619125932455063
1702338774753123600,33.31312353515625,10.180145263671875,-0.028730420395731926,0.08619125932455063
1702338774853127400,33.41312744140625,10.141838073730469,-0.028730420395731926,0.09576806426048279
1702338774953122000,33.5131220703125,10.132261276245117,-0.05746084079146385,0.09576806426048279
1702338775053108000,33.61310791015625,10.170568466186523,-0.028730420395731926,0.08619125932455063
1702338775153135600,33.713135498046874,10.170568466186523,-0.028730420395731926,0.08619125932455063
1702338775253969000,33.81396899414062,10.189722061157227,-0.019153613597154617,0.10534487664699554
1702338775353148700,33.91314868164063,10.170568466186523,-0.009576806798577309,0.08619125932455063
1702338775453137700,34.0131376953125,10.141838073730469,-0.019153613597154617,0.09576806426048279
1702338775553149700,34.11314965820313,10.170568466186523,-0.028730420395731926,0.10534487664699554
1702338775653139700,34.2131396484375,10.15141487121582,-0.019153613597154617,0.09576806426048279
1702338775753150200,34.313150146484375,10.333374977111816,-0.028730420395731926,0.06703764945268631
1702338775853120500,34.41312060546875,10.228029251098633,-0.019153613597154617,0.09576806426048279
1702338775953105000,34.51310498046875,10.132261276245117,-0.019153613597154617,0.10534487664699554
1702338776053139700,34.6131396484375,10.20887565612793,-0.028730420395731926,0.08619125932455063
1702338776153130500,34.71313061523438,10.141838073730469,-0.038307227194309235,0.08619125932455063
1702338776253175800,34.81317578125,10.15141487121582,-0.038307227194309235,0.10534487664699554
1702338776353133000,34.913133056640625,10.160991668701172,-0.019153613597154617,0.07661445438861847
1702338776453142000,35.01314208984375,10.122684478759766,-0.038307227194309235,0.08619125932455063
1702338776553137200,35.11313720703125,10.160991668701172,-0.05746084079146385,0.09576806426048279
1702338776653143000,35.21314306640625,10.15141487121582,-0.038307227194309235,0.09576806426048279
1702338776753137200,35.31313720703125,10.160991668701172,-0.038307227194309235,0.09576806426048279
1702338776853123000,35.413123046875,10.132261276245117,-0.028730420395731926,0.10534487664699554
1702338776953126000,35.5131259765625,10.170568466186523,-0.047884032130241394,0.09576806426048279
1702338777053121500,35.61312158203125,10.170568466186523,-0.038307227194309235,0.08619125932455063
1702338777153161200,35.7131611328125,10.160991668701172,-0.038307227194309235,0.08619125932455063
1702338777253131500,35.813131591796875,10.170568466186523,-0.028730420395731926,0.09576806426048279
1702338777353151200,35.91315112304687,10.132261276245117,-0.038307227194309235,0.09576806426048279
1702338777453133600,36.01313354492188,10.180145263671875,-0.009576806798577309,0.08619125932455063
1702338777553154300,36.113154296875,10.170568466186523,-0.038307227194309235,0.09576806426048279
1702338777653114400,36.2131142578125,10.15141487121582,-0.047884032130241394,0.08619125932455063
1702338777753136600,36.31313671875,10.141838073730469,-0.038307227194309235,0.10534487664699554
1702338777853127400,36.41312744140625,10.180145263671875,-0.038307227194309235,0.09576806426048279
1702338777953105000,36.51310498046875,10.170568466186523,-0.028730420395731926,0.10534487664699554
1702338778053130000,36.6131298828125,10.15141487121582,-0.038307227194309235,0.09576806426048279
1702338778153131500,36.71313159179687,10.132261276245117,-0.038307227194309235,0.09576806426048279
1702338778253150700,36.81315063476563,10.141838073730469,-0.009576806798577309,0.08619125932455063
1702338778353129000,36.91312890625,10.160991668701172,-0.047884032130241394,0.10534487664699554
1702338778453150700,37.01315063476562,10.170568466186523,-0.038307227194309235,0.09576806426048279
1702338778554424300,37.11442431640625,10.170568466186523,-0.028730420395731926,0.08619125932455063
1702338778653156600,37.21315649414063,10.141838073730469,-0.047884032130241394,0.10534487664699554
1702338778753139200,37.31313916015625,10.160991668701172,-0.038307227194309235,0.09576806426048279
1702338778853192000,37.41319189453125,10.170568466186523,-0.05746084079146385,0.10534487664699554
1702338778953121000,37.51312109375,10.160991668701172,-0.028730420395731926,0.10534487664699554
1702338779053117400,37.613117431640624,10.141838073730469,-0.05746084079146385,0.10534487664699554
1702338779153147100,37.71314721679688,10.170568466186523,-0.028730420395731926,0.09576806426048279
1702338779253131000,37.81313110351562,10.160991668701172,-0.019153613597154617,0.08619125932455063
1702338779353147600,37.913147705078124,10.170568466186523,-0.028730420395731926,0.08619125932455063
1702338779453125400,38.01312548828125,10.160991668701172,-0.028730420395731926,0.10534487664699554
1702338779553130000,38.1131298828125,10.160991668701172,-0.019153613597154617,0.10534487664699554
1702338779653128000,38.2131279296875,10.141838073730469,-0.038307227194309235,0.09576806426048279
1702338779753150700,38.31315063476563,10.15141487121582,-0.038307227194309235,0.08619125932455063
1702338779853125400,38.41312548828125,10.15141487121582,-0.028730420395731926,0.09576806426048279
1702338779953105000,38.51310498046875,10.180145263671875,-0.028730420395731926,0.08619125932455063
1702338780053124000,38.6131240234375,10.189722061157227,-0.028730420395731926,0.08619125932455063
1702338780153117000,38.713116943359374,10.15141487121582,-0.038307227194309235,0.10534487664699554
1702338780253145600,38.8131455078125,10.180145263671875,-0.019153613597154617,0.08619125932455063
1702338780353134600,38.91313452148437,10.15141487121582,-0.019153613597154617,0.08619125932455063
1702338780453150700,39.01315063476562,10.141838073730469,-0.019153613597154617,0.08619125932455063
1702338780553134600,39.113134521484376,10.141838073730469,-0.028730420395731926,0.09576806426048279
1702338780653153800,39.21315380859375,10.170568466186523,-0.028730420395731926,0.09576806426048279
1702338780753140500,39.31314038085937,10.160991668701172,-0.028730420395731926,0.10534487664699554
1702338780853111800,39.41311181640625,10.15141487121582,-0.028730420395731926,0.07661445438861847
1702338780953122600,39.51312255859375,10.170568466186523,-0.019153613597154617,0.10534487664699554
1702338781053107500,39.613107421875,10.180145263671875,-0.028730420395731926,0.09576806426048279
1702338781153127400,39.71312744140625,10.170568466186523,-0.019153613597154617,0.07661445438861847
1702338781253110300,39.8131103515625,10.132261276245117,-0.028730420395731926,0.07661445438861847
1702338781353124600,39.91312451171875,10.15141487121582,-0.019153613597154617,0.08619125932455063
1702338781453122000,40.0131220703125,10.170568466186523,-0.019153613597154617,0.09576806426048279
1702338781553151200,40.113151123046876,10.132261276245117,-0.028730420395731926,0.09576806426048279
1702338781653969000,40.21396899414062,10.141838073730469,-0.038307227194309235,0.08619125932455063
1702338781753156000,40.313156005859376,10.15141487121582,-0.028730420395731926,0.08619125932455063
1702338781853149700,40.413149658203125,10.160991668701172,-0.028730420395731926,0.07661445438861847
1702338781953106000,40.51310595703125,10.132261276245117,-0.019153613597154617,0.08619125932455063
1702338782053122600,40.61312255859375,10.170568466186523,-0.028730420395731926,0.10534487664699554
1702338782153108000,40.71310791015625,10.170568466186523,-0.028730420395731926,0.10534487664699554
1702338782253205000,40.813205078125,10.141838073730469,-0.047884032130241394,0.09576806426048279
1702338782353134000,40.91313403320312,10.180145263671875,-0.028730420395731926,0.09576806426048279
1702338782453129000,41.01312890625,10.160991668701172,-0.047884032130241394,0.08619125932455063
1702338782553114400,41.1131142578125,10.160991668701172,-0.009576806798577309,0.07661445438861847
1702338782653136100,41.21313623046875,10.189722061157227,-0.038307227194309235,0.08619125932455063
1702338782753122000,41.3131220703125,10.160991668701172,-0.028730420395731926,0.10534487664699554
1702338782853111800,41.41311181640625,10.180145263671875,-0.028730420395731926,0.10534487664699554
1702338782953121500,41.51312158203125,10.141838073730469,-0.019153613597154617,0.08619125932455063
1702338783053106400,41.6131064453125,10.15141487121582,-0.028730420395731926,0.07661445438861847
1702338783153124000,41.7131240234375,10.15141487121582,-0.038307227194309235,0.07661445438861847
1702338783253109500,41.813109619140626,10.170568466186523,-0.028730420395731926,0.09576806426048279
1702338783353126000,41.9131259765625,10.160991668701172,-0.019153613597154617,0.08619125932455063
1702338783453124000,42.0131240234375,10.141838073730469,-0.028730420395731926,0.10534487664699554
1702338783553129500,42.11312939453125,10.170568466186523,-0.019153613597154617,0.10534487664699554
1702338783653120500,42.21312060546875,10.170568466186523,-0.028730420395731926,0.08619125932455063
1702338783753138200,42.31313818359375,10.160991668701172,-0.019153613597154617,0.09576806426048279
1702338783853136600,42.41313671875,10.160991668701172,-0.038307227194309235,0.08619125932455063
1702338783953104400,42.5131044921875,10.141838073730469,-0.028730420395731926,0.07661445438861847
1702338784053133600,42.61313354492187,10.160991668701172,-0.038307227194309235,0.09576806426048279
1702338784153130000,42.7131298828125,10.15141487121582,-0.047884032130241394,0.09576806426048279
1702338784253149200,42.81314916992188,10.160991668701172,-0.019153613597154617,0.09576806426048279
1702338784353129500,42.91312939453125,10.160991668701172,-0.028730420395731926,0.08619125932455063
1702338784453150200,43.01315014648438,10.141838073730469,-0.047884032130241394,0.1149216815829277
1702338784553115400,43.113115478515624,10.15141487121582,-0.028730420395731926,0.1149216815829277
1702338784653130500,43.21313061523438,10.15141487121582,-0.038307227194309235,0.09576806426048279
1702338784753113900,43.31311376953125,10.170568466186523,-0.038307227194309235,0.09576806426048279
1702338784853170700,43.41317065429688,10.160991668701172,-0.028730420395731926,0.09576806426048279
1702338784953120500,43.51312060546875,10.160991668701172,-0.019153613597154617,0.09576806426048279
1702338785053107000,43.61310693359375,10.141838073730469,-0.028730420395731926,0.08619125932455063
1702338785153122600,43.71312255859375,10.170568466186523,-0.028730420395731926,0.07661445438861847
1702338785253106400,43.8131064453125,10.160991668701172,-0.019153613597154617,0.10534487664699554
1702338785353134600,43.91313452148437,10.160991668701172,-0.038307227194309235,0.09576806426048279
1702338785453134000,44.01313403320312,10.132261276245117,-0.028730420395731926,0.08619125932455063
1702338785553143600,44.1131435546875,10.132261276245117,-0.019153613597154617,0.08619125932455063
1702338785653134600,44.21313452148438,10.160991668701172,-0.028730420395731926,0.10534487664699554
1702338785753152300,44.31315234375,10.15141487121582,-0.038307227194309235,0.09576806426048279
1702338785853143600,44.4131435546875,10.160991668701172,-0.038307227194309235,0.10534487664699554
1702338785953123000,44.513123046875,10.160991668701172,-0.028730420395731926,0.08619125932455063
1702338786053132000,44.613132080078124,10.160991668701172,-0.047884032130241394,0.09576806426048279
1702338786153118000,44.71311791992188,10.15141487121582,-0.019153613597154617,0.07661445438861847
1702338786253143600,44.8131435546875,10.141838073730469,-0.019153613597154617,0.09576806426048279
1702338786353423600,44.913423583984375,10.170568466186523,-0.038307227194309235,0.09576806426048279
1702338786453151200,45.013151123046875,10.15141487121582,-0.047884032130241394,0.10534487664699554
1702338786553133000,45.11313305664063,10.141838073730469,-0.019153613597154617,0.08619125932455063
1702338786653148700,45.213148681640625,10.160991668701172,-0.028730420395731926,0.09576806426048279
1702338786753137700,45.3131376953125,10.141838073730469,-0.038307227194309235,0.07661445438861847
1702338786853152300,45.41315234375,10.160991668701172,-0.047884032130241394,0.08619125932455063
1702338786953119500,45.51311938476562,10.132261276245117,-0.038307227194309235,0.08619125932455063
1702338787053105400,45.61310546875,10.15141487121582,-0.05746084079146385,0.09576806426048279
1702338787153138200,45.71313818359375,10.141838073730469,-0.047884032130241394,0.09576806426048279
1702338787253130000,45.8131298828125,10.15141487121582,-0.038307227194309235,0.08619125932455063
1702338787353127000,45.913126953125,10.15141487121582,-0.028730420395731926,0.07661445438861847
1702338787453111800,46.01311181640625,10.170568466186523,-0.05746084079146385,0.09576806426048279
1702338787553130000,46.1131298828125,10.160991668701172,-0.038307227194309235,0.08619125932455063
1702338787653126000,46.2131259765625,10.170568466186523,-0.019153613597154617,0.09576806426048279
1702338787753273600,46.313273681640624,10.15141487121582,-0.028730420395731926,0.09576806426048279
1702338787853124600,46.41312451171875,10.189722061157227,-0.028730420395731926,0.10534487664699554
1702338787953122000,46.5131220703125,10.141838073730469,-0.038307227194309235,0.09576806426048279
1702338788053137700,46.6131376953125,10.160991668701172,-0.038307227194309235,0.09576806426048279
1702338788153124600,46.71312451171875,10.15141487121582,-0.028730420395731926,0.07661445438861847
1702338788253135000,46.813135009765624,10.160991668701172,-0.009576806798577309,0.09576806426048279
1702338788353128400,46.91312841796875,10.132261276245117,-0.038307227194309235,0.08619125932455063
1702338788453151200,47.013151123046875,10.170568466186523,-0.028730420395731926,0.09576806426048279
1702338788553131000,47.11313110351563,10.141838073730469,-0.028730420395731926,0.10534487664699554
1702338788653151700,47.21315185546875,10.160991668701172,-0.028730420395731926,0.07661445438861847
1702338788753135600,47.313135498046876,10.132261276245117,-0.047884032130241394,0.09576806426048279
1702338788853142500,47.413142578125,10.160991668701172,-0.038307227194309235,0.09576806426048279
1702338788953117400,47.51311743164062,10.15141487121582,-0.019153613597154617,0.09576806426048279
1702338789053121500,47.61312158203125,10.141838073730469,-0.028730420395731926,0.09576806426048279
1702338789153143600,47.7131435546875,10.170568466186523,-0.038307227194309235,0.10534487664699554
1702338789253109500,47.813109619140626,10.15141487121582,-0.038307227194309235,0.09576806426048279
1702338789353132500,47.91313256835937,10.132261276245117,-0.028730420395731926,0.10534487664699554
1702338789453134000,48.01313403320312,10.141838073730469,-0.038307227194309235,0.10534487664699554
1702338789553129500,48.11312939453125,10.160991668701172,-0.028730420395731926,0.09576806426048279
1702338789653115000,48.213114990234374,10.15141487121582,-0.047884032130241394,0.09576806426048279
1702338789753131500,48.313131591796875,10.160991668701172,-0.047884032130241394,0.09576806426048279
1702338789853119000,48.41311889648438,10.160991668701172,-0.038307227194309235,0.09576806426048279
1702338789953102300,48.51310229492187,10.15141487121582,-0.06703764945268631,0.09576806426048279
1702338790053186300,48.613186279296876,10.15141487121582,-0.028730420395731926,0.09576806426048279
1702338790153106400,48.7131064453125,10.160991668701172,-0.05746084079146385,0.09576806426048279
1702338790253123600,48.81312353515625,10.141838073730469,-0.06703764945268631,0.10534487664699554
1702338790353131500,48.913131591796876,10.141838073730469,-0.047884032130241394,0.08619125932455063
1702338790453147600,49.013147705078126,10.132261276245117,-0.047884032130241394,0.09576806426048279
1702338790553129000,49.11312890625,10.160991668701172,-0.05746084079146385,0.10534487664699554
1702338790653148200,49.21314819335937,10.132261276245117,-0.05746084079146385,0.09576806426048279
1702338790753115400,49.31311547851563,10.160991668701172,-0.028730420395731926,0.09576806426048279
1702338790853130500,49.41313061523437,10.141838073730469,-0.038307227194309235,0.08619125932455063
1702338790953119000,49.51311889648437,10.132261276245117,-0.028730420395731926,0.10534487664699554
1702338791053124000,49.6131240234375,10.141838073730469,-0.047884032130241394,0.08619125932455063
1702338791153144000,49.71314404296875,10.132261276245117,-0.047884032130241394,0.09576806426048279
1702338791253108500,49.8131083984375,10.160991668701172,-0.019153613597154617,0.10534487664699554
1702338791353124600,49.91312451171875,10.15141487121582,-0.038307227194309235,0.08619125932455063
1702338791453109500,50.01310961914062,10.160991668701172,-0.028730420395731926,0.08619125932455063
1702338791553128000,50.1131279296875,10.132261276245117,-0.047884032130241394,0.1149216815829277
1702338791653121000,50.21312109375,10.15141487121582,-0.019153613597154617,0.09576806426048279
1702338791753153800,50.31315380859375,10.141838073730469,-0.047884032130241394,0.09576806426048279
1702338791853144000,50.41314404296875,10.15141487121582,-0.028730420395731926,0.09576806426048279
1702338791953102800,50.513102783203124,10.160991668701172,-0.05746084079146385,0.10534487664699554
1702338792053128000,50.6131279296875,10.160991668701172,-0.038307227194309235,0.10534487664699554
1702338792153125400,50.71312548828125,10.141838073730469,-0.028730420395731926,0.08619125932455063
1702338792253144600,50.81314453125,10.160991668701172,-0.038307227194309235,0.08619125932455063
1702338792353248300,50.91324829101563,10.160991668701172,-0.038307227194309235,0.10534487664699554
1702338792453142500,51.013142578125,10.170568466186523,-0.028730420395731926,0.10534487664699554
1702338792553852000,51.113851806640625,10.160991668701172,-0.038307227194309235,0.09576806426048279
1702338792653147100,51.21314721679688,10.141838073730469,-0.038307227194309235,0.08619125932455063
1702338792753183500,51.31318359375,10.132261276245117,-0.038307227194309235,0.08619125932455063
1702338792853134000,51.41313403320312,10.160991668701172,-0.028730420395731926,0.09576806426048279
1702338792953121000,51.51312109375,10.141838073730469,-0.019153613597154617,0.12449848651885986
1702338793053101800,51.61310180664063,10.160991668701172,-0.028730420395731926,0.09576806426048279
1702338793153122600,51.71312255859375,10.15141487121582,-0.019153613597154617,0.08619125932455063
1702338793253126000,51.8131259765625,10.122684478759766,-0.028730420395731926,0.09576806426048279
1702338793353985000,51.91398510742187,10.160991668701172,-0.019153613597154617,0.08619125932455063
1702338793453129500,52.01312939453125,10.170568466186523,-0.038307227194309235,0.09576806426048279
1702338793553129500,52.11312939453125,10.160991668701172,-0.009576806798577309,0.1149216815829277
1702338793653113900,52.21311376953125,10.170568466186523,-0.047884032130241394,0.08619125932455063
1702338793753132500,52.31313256835937,10.15141487121582,-0.038307227194309235,0.09576806426048279
1702338793853122600,52.41312255859375,10.160991668701172,-0.028730420395731926,0.08619125932455063
1702338793953149200,52.513149169921874,10.132261276245117,-0.06703764945268631,0.10534487664699554
1702338794053134000,52.613134033203124,10.141838073730469,-0.038307227194309235,0.07661445438861847
1702338794153128000,52.7131279296875,10.15141487121582,-0.05746084079146385,0.1149216815829277
1702338794253141500,52.8131416015625,10.15141487121582,-0.047884032130241394,0.09576806426048279
1702338794353129000,52.91312890625,10.160991668701172,-0.05746084079146385,0.12449848651885986
1702338794453145600,53.0131455078125,10.160991668701172,-0.028730420395731926,0.09576806426048279
1702338794553130500,53.113130615234375,10.170568466186523,-0.028730420395731926,0.10534487664699554
1702338794653426200,53.21342626953125,10.132261276245117,-0.047884032130241394,0.10534487664699554
1702338794753135000,53.313135009765624,10.15141487121582,-0.038307227194309235,0.10534487664699554
1702338794853138200,53.41313818359375,10.141838073730469,-0.047884032130241394,0.09576806426048279
1702338794953121000,53.51312109375,10.160991668701172,-0.028730420395731926,0.09576806426048279
1702338795053123600,53.61312353515625,10.15141487121582,-0.05746084079146385,0.09576806426048279
1702338795153144600,53.71314453125,10.15141487121582,-0.028730420395731926,0.08619125932455063
1702338795253120500,53.81312060546875,10.15141487121582,-0.038307227194309235,0.12449848651885986
1702338795353146000,53.91314599609375,10.15141487121582,-0.028730420395731926,0.08619125932455063
1702338795453130500,54.013130615234374,10.141838073730469,-0.047884032130241394,0.1149216815829277
1702338795553146600,54.11314672851562,10.15141487121582,-0.047884032130241394,0.12449848651885986
1702338795653135000,54.21313500976562,10.160991668701172,-0.038307227194309235,0.09576806426048279
1702338795753137700,54.3131376953125,10.15141487121582,-0.038307227194309235,0.09576806426048279
1702338795853126400,54.41312646484375,10.141838073730469,-0.06703764945268631,0.10534487664699554
1702338795953153300,54.5131533203125,10.15141487121582,-0.047884032130241394,0.08619125932455063
1702338796053136600,54.61313671875,10.132261276245117,-0.028730420395731926,0.09576806426048279
1702338796153120500,54.71312060546875,10.113107681274414,-0.038307227194309235,0.09576806426048279
1702338796253147100,54.81314721679688,10.141838073730469,-0.038307227194309235,0.09576806426048279
1702338796353108000,54.91310791015625,10.170568466186523,-0.05746084079146385,0.09576806426048279
1702338796453126400,55.01312646484375,10.160991668701172,-0.028730420395731926,0.10534487664699554
1702338796553109500,55.11310961914062,10.170568466186523,-0.038307227194309235,0.09576806426048279
1702338796653150700,55.213150634765626,10.180145263671875,-0.028730420395731926,0.1149216815829277
1702338796753131500,55.313131591796875,10.170568466186523,-0.038307227194309235,0.09576806426048279
1702338796853135600,55.41313549804688,10.180145263671875,-0.019153613597154617,0.09576806426048279
1702338796953118500,55.51311840820313,10.160991668701172,-0.028730420395731926,0.08619125932455063
1702338797053112800,55.61311279296875,10.170568466186523,-0.009576806798577309,0.08619125932455063
1702338797153137200,55.71313720703125,10.132261276245117,-0.038307227194309235,0.10534487664699554
1702338797253127400,55.81312744140625,10.170568466186523,-0.019153613597154617,0.07661445438861847
1702338797353145000,55.91314501953125,10.160991668701172,-0.009576806798577309,0.08619125932455063
1702338797453131500,56.01313159179688,10.160991668701172,-0.038307227194309235,0.08619125932455063
1702338797553143000,56.11314306640625,10.141838073730469,-0.028730420395731926,0.10534487664699554
1702338797653134000,56.213134033203126,10.160991668701172,-0.028730420395731926,0.09576806426048279
1702338797753129500,56.31312939453125,10.180145263671875,-0.019153613597154617,0.10534487664699554
1702338797853121000,56.41312109375,10.170568466186523,-0.047884032130241394,0.08619125932455063
1702338797953133600,56.51313354492188,10.160991668701172,-0.028730420395731926,0.10534487664699554
1702338798053119500,56.613119384765625,10.160991668701172,-0.019153613597154617,0.08619125932455063
1702338798153113900,56.71311376953125,10.132261276245117,-0.038307227194309235,0.09576806426048279
1702338798253126000,56.8131259765625,10.15141487121582,-0.028730420395731926,0.08619125932455063
1702338798353117400,56.91311743164062,10.160991668701172,-0.038307227194309235,0.10534487664699554
1702338798453131000,57.013131103515626,10.132261276245117,-0.05746084079146385,0.09576806426048279
1702338798553120000,57.1131201171875,10.132261276245117,-0.038307227194309235,0.09576806426048279
1702338798653137700,57.2131376953125,10.141838073730469,-0.047884032130241394,0.10534487664699554
1702338798753122600,57.31312255859375,10.141838073730469,-0.028730420395731926,0.08619125932455063
1702338798853133600,57.41313354492188,10.180145263671875,-0.028730420395731926,0.08619125932455063
1702338798953119000,57.51311889648437,10.180145263671875,-0.019153613597154617,0.09576806426048279
1702338799053120500,57.61312060546875,10.170568466186523,-0.028730420395731926,0.08619125932455063
1702338799153128000,57.7131279296875,10.15141487121582,0,0.09576806426048279
1702338799253112800,57.81311279296875,10.141838073730469,-0.038307227194309235,0.09576806426048279
1702338799353128400,57.91312841796875,10.180145263671875,-0.028730420395731926,0.08619125932455063
1702338799453113900,58.01311376953125,10.122684478759766,-0.038307227194309235,0.07661445438861847
1702338799553135000,58.11313500976563,10.141838073730469,-0.038307227194309235,0.07661445438861847
1702338799653118500,58.21311840820312,10.180145263671875,-0.028730420395731926,0.08619125932455063
1702338799753140200,58.31314013671875,10.170568466186523,-0.009576806798577309,0.08619125932455063
1702338799853137700,58.4131376953125,10.160991668701172,-0.019153613597154617,0.09576806426048279
1702338799953132000,58.51313208007812,10.160991668701172,-0.019153613597154617,0.10534487664699554
1702338800053119000,58.61311889648437,10.160991668701172,-0.038307227194309235,0.08619125932455063
1702338800153115400,58.713115478515626,10.132261276245117,-0.028730420395731926,0.09576806426048279
1702338800253144000,58.81314404296875,10.15141487121582,-0.038307227194309235,0.09576806426048279
1702338800353130500,58.91313061523437,10.132261276245117,-0.028730420395731926,0.08619125932455063
1702338800453144000,59.01314404296875,10.170568466186523,-0.019153613597154617,0.09576806426048279
1702338800553133600,59.11313354492187,10.15141487121582,-0.019153613597154617,0.10534487664699554
1702338800653144000,59.21314404296875,10.15141487121582,-0.038307227194309235,0.08619125932455063
1702338800753248800,59.31324877929688,10.15141487121582,-0.038307227194309235,0.08619125932455063
1702338800853135000,59.413135009765625,10.15141487121582,-0.038307227194309235,0.10534487664699554
1702338800953119000,59.51311889648437,10.141838073730469,-0.038307227194309235,0.10534487664699554
1702338801053104400,59.6131044921875,10.15141487121582,-0.028730420395731926,0.09576806426048279
1702338801153145000,59.71314501953125,10.141838073730469,-0.047884032130241394,0.09576806426048279
1702338801253118500,59.813118408203124,10.15141487121582,-0.019153613597154617,0.09576806426048279
1702338801353143000,59.91314306640625,10.160991668701172,-0.038307227194309235,0.09576806426048279
1702338801453110800,60.01311083984375,10.141838073730469,-0.038307227194309235,0.09576806426048279
1702338801553123000,60.113123046875,10.15141487121582,-0.028730420395731926,0.08619125932455063
1702338801653128400,60.21312841796875,10.132261276245117,-0.028730420395731926,0.09576806426048279
1702338801753146000,60.31314599609375,10.132261276245117,-0.06703764945268631,0.09576806426048279
1702338801853144000,60.41314404296875,10.141838073730469,-0.038307227194309235,0.09576806426048279
1702338801953134000,60.51313403320312,10.132261276245117,-0.028730420395731926,0.09576806426048279
1702338802053120000,60.6131201171875,10.160991668701172,-0.038307227194309235,0.08619125932455063
1702338802153106000,60.71310595703125,10.141838073730469,-0.038307227194309235,0.09576806426048279
1702338802253122600,60.81312255859375,10.160991668701172,-0.019153613597154617,0.09576806426048279
1702338802353124600,60.91312451171875,10.180145263671875,-0.019153613597154617,0.09576806426048279
1702338802453177900,61.013177734375,10.160991668701172,-0.05746084079146385,0.09576806426048279
1702338802553132000,61.113132080078124,10.170568466186523,-0.038307227194309235,0.09576806426048279
1702338802653153300,61.2131533203125,10.160991668701172,-0.038307227194309235,0.1149216815829277
1702338802753129500,61.31312939453125,10.15141487121582,-0.019153613597154617,0.09576806426048279
1702338802853134600,61.41313452148437,10.160991668701172,-0.06703764945268631,0.08619125932455063
1702338802953118500,61.51311840820313,10.141838073730469,-0.038307227194309235,0.1149216815829277
1702338803053106000,61.61310595703125,10.141838073730469,-0.038307227194309235,0.10534487664699554
1702338803153119000,61.713118896484374,10.160991668701172,-0.038307227194309235,0.10534487664699554
1702338803253104400,61.8131044921875,10.160991668701172,-0.038307227194309235,0.09576806426048279
1702338803353133600,61.91313354492188,10.160991668701172,-0.038307227194309235,0.08619125932455063
1702338803453426700,62.0134267578125,10.15141487121582,-0.038307227194309235,0.10534487664699554
1702338803553148200,62.11314819335937,10.141838073730469,-0.038307227194309235,0.07661445438861847
1702338803653942500,62.21394262695313,10.160991668701172,-0.05746084079146385,0.10534487664699554
1702338803753128400,62.31312841796875,10.170568466186523,-0.05746084079146385,0.09576806426048279
1702338803853123600,62.41312353515625,10.160991668701172,-0.028730420395731926,0.08619125932455063
1702338803953133000,62.513133056640626,10.160991668701172,-0.028730420395731926,0.08619125932455063
1702338804053121000,62.61312109375,10.141838073730469,-0.047884032130241394,0.1149216815829277
1702338804153122600,62.71312255859375,10.132261276245117,-0.028730420395731926,0.09576806426048279
1702338804253143000,62.81314306640625,10.132261276245117,-0.028730420395731926,0.08619125932455063
1702338804353119500,62.91311938476562,10.15141487121582,-0.047884032130241394,0.08619125932455063
1702338804453145600,63.0131455078125,10.141838073730469,-0.047884032130241394,0.10534487664699554
1702338804553123600,63.11312353515625,10.15141487121582,-0.047884032130241394,0.08619125932455063
1702338804653128000,63.2131279296875,10.15141487121582,-0.028730420395731926,0.10534487664699554
1702338804753112800,63.31311279296875,10.15141487121582,-0.028730420395731926,0.10534487664699554
1702338804853134600,63.41313452148437,10.141838073730469,-0.047884032130241394,0.09576806426048279
1702338804953118000,63.513117919921875,10.170568466186523,-0.038307227194309235,0.09576806426048279
1702338805053156000,63.61315600585937,10.160991668701172,-0.019153613597154617,0.09576806426048279
1702338805153134600,63.71313452148438,10.15141487121582,-0.038307227194309235,0.09576806426048279
1702338805253123600,63.81312353515625,10.15141487121582,-0.05746084079146385,0.08619125932455063
1702338805353140200,63.91314013671875,10.132261276245117,-0.047884032130241394,0.10534487664699554
1702338805453133000,64.01313305664063,10.160991668701172,-0.047884032130241394,0.10534487664699554
1702338805553126400,64.11312646484375,10.160991668701172,-0.038307227194309235,0.10534487664699554
1702338805653109000,64.21310888671874,10.141838073730469,-0.028730420395731926,0.09576806426048279
1702338805753133000,64.31313305664062,10.160991668701172,-0.038307227194309235,0.09576806426048279
1702338805853118500,64.41311840820312,10.141838073730469,-0.038307227194309235,0.10534487664699554
1702338805953133000,64.51313305664063,10.132261276245117,-0.047884032130241394,0.09576806426048279
1702338806053120000,64.6131201171875,10.15141487121582,-0.038307227194309235,0.09576806426048279
1702338806153121500,64.71312158203125,10.15141487121582,-0.019153613597154617,0.08619125932455063
1702338806253142500,64.813142578125,10.132261276245117,-0.019153613597154617,0.08619125932455063
1702338806353128000,64.9131279296875,10.160991668701172,-0.028730420395731926,0.10534487664699554
1702338806453139700,65.0131396484375,10.160991668701172,-0.019153613597154617,0.09576806426048279
1702338806553132500,65.11313256835938,10.170568466186523,-0.05746084079146385,0.10534487664699554
1702338806653149200,65.21314916992188,10.170568466186523,-0.019153613597154617,0.10534487664699554
1702338806753134600,65.31313452148437,10.122684478759766,-0.038307227194309235,0.09576806426048279
1702338806853140200,65.41314013671875,10.160991668701172,-0.047884032130241394,0.09576806426048279
1702338806953135000,65.51313500976562,10.122684478759766,-0.028730420395731926,0.10534487664699554
1702338807053134000,65.61313403320312,10.160991668701172,-0.019153613597154617,0.09576806426048279
1702338807153120000,65.7131201171875,10.170568466186523,-0.019153613597154617,0.08619125932455063
1702338807253115000,65.81311499023437,10.132261276245117,-0.047884032130241394,0.08619125932455063
1702338807353143600,65.9131435546875,10.160991668701172,-0.038307227194309235,0.1149216815829277
1702338807453130000,66.0131298828125,10.141838073730469,-0.028730420395731926,0.06703764945268631
1702338807553128000,66.1131279296875,10.180145263671875,-0.028730420395731926,0.10534487664699554
1702338807653116400,66.21311645507812,10.15141487121582,-0.038307227194309235,0.09576806426048279
1702338807753152300,66.31315234375,10.141838073730469,-0.047884032130241394,0.08619125932455063
1702338807853118000,66.41311791992187,10.15141487121582,-0.028730420395731926,0.07661445438861847
1702338807953136600,66.51313671875,10.132261276245117,-0.038307227194309235,0.10534487664699554
1702338808053134000,66.61313403320312,10.180145263671875,-0.028730420395731926,0.10534487664699554
1702338808153125000,66.713125,10.180145263671875,-0.019153613597154617,0.08619125932455063
1702338808253141500,66.8131416015625,10.160991668701172,-0.038307227194309235,0.09576806426048279
1702338808353132500,66.91313256835937,10.160991668701172,-0.028730420395731926,0.10534487664699554
1702338808453146000,67.01314599609375,10.160991668701172,-0.028730420395731926,0.1149216815829277
1702338808553126400,67.11312646484375,10.160991668701172,-0.028730420395731926,0.08619125932455063
1702338808653146600,67.21314672851562,10.15141487121582,-0.038307227194309235,0.08619125932455063
1702338808753411600,67.31341162109375,10.160991668701172,-0.028730420395731926,0.09576806426048279
1702338808853142500,67.413142578125,10.170568466186523,-0.038307227194309235,0.10534487664699554
1702338808953469400,67.51346948242187,10.15141487121582,-0.038307227194309235,0.09576806426048279
1702338809053145600,67.6131455078125,10.189722061157227,-0.038307227194309235,0.09576806426048279
1702338809153130000,67.7131298828125,10.160991668701172,-0.047884032130241394,0.10534487664699554
1702338809253126000,67.8131259765625,10.132261276245117,-0.038307227194309235,0.10534487664699554
1702338809353140200,67.91314013671875,10.160991668701172,-0.038307227194309235,0.10534487664699554
1702338809453143600,68.0131435546875,10.15141487121582,-0.038307227194309235,0.08619125932455063
1702338809553146600,68.11314672851563,10.160991668701172,-0.019153613597154617,0.09576806426048279
1702338809653183000,68.21318286132812,10.141838073730469,-0.06703764945268631,0.10534487664699554
1702338809753143000,68.31314306640625,10.180145263671875,-0.028730420395731926,0.10534487664699554
1702338809853115000,68.41311499023438,10.15141487121582,-0.047884032130241394,0.09576806426048279
1702338809953133000,68.51313305664063,10.15141487121582,-0.047884032130241394,0.09576806426048279
1702338810053118000,68.61311791992188,10.122684478759766,-0.047884032130241394,0.09576806426048279
1702338810153109500,68.71310961914062,10.122684478759766,-0.038307227194309235,0.10534487664699554
1702338810253139200,68.81313916015625,10.160991668701172,-0.019153613597154617,0.08619125932455063
1702338810353122000,68.9131220703125,10.132261276245117,-0.047884032130241394,0.10534487664699554
1702338810453144600,69.01314453125,10.180145263671875,-0.019153613597154617,0.1149216815829277
1702338810553123600,69.11312353515625,10.160991668701172,-0.019153613597154617,0.09576806426048279
1702338810654418000,69.21441796875,10.141838073730469,-0.038307227194309235,0.10534487664699554
1702338810753136000,69.31313623046876,10.160991668701172,-0.028730420395731926,0.09576806426048279
1702338810853131500,69.41313159179687,10.132261276245117,-0.028730420395731926,0.08619125932455063
1702338810953117000,69.51311694335938,10.15141487121582,-0.038307227194309235,0.10534487664699554
1702338811053132500,69.61313256835938,10.15141487121582,-0.019153613597154617,0.08619125932455063
1702338811153141000,69.71314111328125,10.160991668701172,-0.038307227194309235,0.09576806426048279
1702338811253105400,69.81310546875,10.132261276245117,-0.038307227194309235,0.07661445438861847
1702338811353133600,69.91313354492188,10.15141487121582,-0.047884032130241394,0.09576806426048279
1702338811453221600,70.0132216796875,10.15141487121582,-0.047884032130241394,0.09576806426048279
1702338811553127000,70.113126953125,10.132261276245117,-0.05746084079146385,0.09576806426048279
1702338811653111300,70.213111328125,10.160991668701172,-0.047884032130241394,0.10534487664699554
1702338811753129000,70.31312890625,10.160991668701172,-0.038307227194309235,0.10534487664699554
1702338811853116000,70.41311596679688,10.15141487121582,-0.019153613597154617,0.09576806426048279
1702338811953132500,70.51313256835938,10.141838073730469,-0.038307227194309235,0.09576806426048279
1702338812053125000,70.613125,10.132261276245117,-0.038307227194309235,0.10534487664699554
1702338812153122000,70.7131220703125,10.160991668701172,-0.047884032130241394,0.10534487664699554
1702338812253145600,70.8131455078125,10.15141487121582,-0.028730420395731926,0.09576806426048279
1702338812353126000,70.9131259765625,10.15141487121582,-0.038307227194309235,0.1149216815829277
1702338812453169400,71.01316943359375,10.15141487121582,-0.019153613597154617,0.09576806426048279
1702338812553132000,71.11313208007813,10.141838073730469,-0.038307227194309235,0.1149216815829277
1702338812653127000,71.213126953125,10.160991668701172,-0.038307227194309235,0.09576806426048279
1702338812753113300,71.31311328125,10.141838073730469,-0.028730420395731926,0.10534487664699554
1702338812853136600,71.41313671875,10.141838073730469,-0.028730420395731926,0.10534487664699554
1702338812953117000,71.51311694335938,10.15141487121582,-0.019153613597154617,0.08619125932455063
1702338813053131500,71.61313159179687,10.15141487121582,-0.028730420395731926,0.08619125932455063
1702338813153120500,71.71312060546875,10.141838073730469,-0.038307227194309235,0.09576806426048279
1702338813253105000,71.81310498046875,10.180145263671875,-0.028730420395731926,0.09576806426048279
1702338813353122600,71.91312255859376,10.141838073730469,-0.047884032130241394,0.10534487664699554
1702338813453115400,72.01311547851563,10.15141487121582,-0.019153613597154617,0.09576806426048279
1702338813553121000,72.11312109375,10.160991668701172,-0.028730420395731926,0.09576806426048279
1702338813653110800,72.21311083984375,10.15141487121582,-0.028730420395731926,0.10534487664699554
1702338813753133000,72.31313305664062,10.160991668701172,-0.038307227194309235,0.09576806426048279
1702338813853122600,72.41312255859376,10.160991668701172,-0.038307227194309235,0.10534487664699554
1702338813953147600,72.51314770507813,10.122684478759766,-0.019153613597154617,0.09576806426048279
1702338814053138700,72.613138671875,10.15141487121582,-0.019153613597154617,0.07661445438861847
1702338814153152300,72.71315234375,10.160991668701172,-0.028730420395731926,0.08619125932455063
1702338814253141000,72.81314111328125,10.160991668701172,-0.028730420395731926,0.08619125932455063
1702338814353434000,72.91343408203124,10.141838073730469,-0.038307227194309235,0.07661445438861847
1702338814453145600,73.0131455078125,10.141838073730469,-0.028730420395731926,0.09576806426048279
1702338814553132000,73.11313208007813,10.180145263671875,-0.038307227194309235,0.10534487664699554
1702338814653141500,73.2131416015625,10.15141487121582,-0.028730420395731926,0.07661445438861847
1702338814753119000,73.31311889648437,10.160991668701172,-0.028730420395731926,0.10534487664699554
1702338814853137200,73.41313720703126,10.160991668701172,-0.028730420395731926,0.09576806426048279
1702338814953115400,73.51311547851563,10.160991668701172,-0.038307227194309235,0.09576806426048279
1702338815053151700,73.61315185546874,10.170568466186523,-0.038307227194309235,0.09576806426048279
1702338815153141500,73.7131416015625,10.15141487121582,-0.038307227194309235,0.10534487664699554
1702338815253119000,73.81311889648437,10.160991668701172,-0.038307227194309235,0.08619125932455063
1702338815353136000,73.91313623046875,10.160991668701172,-0.009576806798577309,0.10534487664699554
1702338815453130000,74.0131298828125,10.15141487121582,-0.038307227194309235,0.09576806426048279
1702338815553139700,74.1131396484375,10.160991668701172,-0.028730420395731926,0.10534487664699554
1702338815653153300,74.2131533203125,10.132261276245117,-0.028730420395731926,0.10534487664699554
1702338815753146000,74.31314599609375,10.15141487121582,-0.038307227194309235,0.10534487664699554
1702338815853119000,74.41311889648438,10.160991668701172,-0.038307227194309235,0.1149216815829277
1702338815953132500,74.51313256835938,10.170568466186523,-0.038307227194309235,0.09576806426048279
1702338816053127000,74.613126953125,10.180145263671875,-0.009576806798577309,0.07661445438861847
1702338816153153300,74.7131533203125,10.141838073730469,-0.019153613597154617,0.08619125932455063
1702338816253140200,74.81314013671874,10.15141487121582,-0.028730420395731926,0.09576806426048279
1702338816353118500,74.91311840820312,10.170568466186523,-0.038307227194309235,0.09576806426048279
1702338816453143000,75.01314306640624,10.160991668701172,-0.028730420395731926,0.10534487664699554
1702338816553126400,75.11312646484375,10.141838073730469,-0.047884032130241394,0.10534487664699554
1702338816653143000,75.21314306640625,10.170568466186523,-0.028730420395731926,0.09576806426048279
1702338816753132500,75.31313256835938,10.160991668701172,-0.047884032130241394,0.08619125932455063
1702338816853131500,75.41313159179687,10.132261276245117,-0.047884032130241394,0.10534487664699554
1702338816953113300,75.51311328125,10.15141487121582,-0.047884032130241394,0.09576806426048279
1702338817053132000,75.61313208007813,10.170568466186523,-0.028730420395731926,0.09576806426048279
1702338817153117400,75.71311743164063,10.170568466186523,-0.028730420395731926,0.07661445438861847
1702338817253115000,75.81311499023437,10.141838073730469,-0.028730420395731926,0.09576806426048279
1702338817353140200,75.91314013671875,10.141838073730469,-0.028730420395731926,0.08619125932455063
1702338817453129000,76.01312890625,10.141838073730469,-0.028730420395731926,0.08619125932455063
1702338817553584000,76.11358422851562,10.132261276245117,-0.05746084079146385,0.09576806426048279
1702338817653945600,76.21394555664062,10.170568466186523,-0.047884032130241394,0.09576806426048279
1702338817753130000,76.3131298828125,10.160991668701172,-0.028730420395731926,0.09576806426048279
1702338817853111300,76.413111328125,10.15141487121582,-0.038307227194309235,0.08619125932455063
1702338817953133000,76.51313305664063,10.141838073730469,-0.019153613597154617,0.10534487664699554
1702338818053135600,76.61313549804687,10.15141487121582,-0.028730420395731926,0.08619125932455063
1702338818153141500,76.7131416015625,10.160991668701172,-0.028730420395731926,0.09576806426048279
1702338818253119500,76.81311938476563,10.15141487121582,-0.047884032130241394,0.09576806426048279
1702338818353104400,76.9131044921875,10.170568466186523,-0.038307227194309235,0.08619125932455063
1702338818453120500,77.01312060546876,10.170568466186523,-0.038307227194309235,0.08619125932455063
1702338818553121000,77.11312109375,10.160991668701172,-0.019153613597154617,0.08619125932455063
1702338818653146600,77.21314672851562,10.15141487121582,-0.028730420395731926,0.08619125932455063
1702338818753129000,77.31312890625,10.170568466186523,-0.028730420395731926,0.09576806426048279
1702338818853156600,77.41315649414062,10.15141487121582,-0.038307227194309235,0.08619125932455063
1702338818953113300,77.51311328125,10.170568466186523,0,0.08619125932455063
1702338819053152800,77.61315283203125,10.15141487121582,-0.047884032130241394,0.08619125932455063
1702338819153139700,77.7131396484375,10.141838073730469,-0.028730420395731926,0.08619125932455063
1702338819253121500,77.81312158203124,10.141838073730469,-0.038307227194309235,0.1149216815829277
1702338819353143600,77.9131435546875,10.141838073730469,-0.047884032130241394,0.10534487664699554
1702338819453126400,78.01312646484375,10.141838073730469,-0.047884032130241394,0.10534487664699554
1702338819553321500,78.11332153320312,10.141838073730469,-0.05746084079146385,0.10534487664699554
1702338819653133600,78.21313354492187,10.15141487121582,-0.047884032130241394,0.10534487664699554
1702338819753130000,78.3131298828125,10.160991668701172,-0.019153613597154617,0.09576806426048279
1702338819853113900,78.41311376953125,10.15141487121582,-0.047884032130241394,0.08619125932455063
1702338819953129500,78.51312939453125,10.160991668701172,-0.038307227194309235,0.09576806426048279
1702338820053116400,78.61311645507813,10.15141487121582,-0.028730420395731926,0.09576806426048279
1702338820153132500,78.71313256835937,10.189722061157227,-0.028730420395731926,0.1149216815829277
1702338820253118000,78.81311791992188,10.122684478759766,-0.028730420395731926,0.1149216815829277
1702338820353104400,78.9131044921875,10.160991668701172,-0.019153613597154617,0.08619125932455063
1702338820453146000,79.01314599609375,10.160991668701172,-0.038307227194309235,0.1149216815829277
1702338820553130000,79.1131298828125,10.141838073730469,-0.047884032130241394,0.09576806426048279
1702338820653147600,79.21314770507813,10.160991668701172,-0.047884032130241394,0.10534487664699554
1702338820753129000,79.31312890625,10.170568466186523,-0.009576806798577309,0.09576806426048279
1702338820853136100,79.41313623046875,10.15141487121582,-0.019153613597154617,0.1149216815829277
1702338820953131000,79.51313110351562,10.141838073730469,-0.047884032130241394,0.08619125932455063
1702338821053143000,79.61314306640625,10.15141487121582,-0.047884032130241394,0.07661445438861847
1702338821153328400,79.71332836914063,10.15141487121582,-0.038307227194309235,0.08619125932455063
1702338821253127000,79.813126953125,10.15141487121582,-0.028730420395731926,0.10534487664699554
1702338821353143600,79.9131435546875,10.15141487121582,-0.028730420395731926,0.09576806426048279
1702338821453117000,80.01311694335938,10.15141487121582,-0.038307227194309235,0.09576806426048279
1702338821553147100,80.11314721679688,10.132261276245117,-0.038307227194309235,0.09576806426048279
1702338821653135600,80.21313549804688,10.141838073730469,-0.028730420395731926,0.09576806426048279
1702338821753129500,80.31312939453124,10.15141487121582,-0.038307227194309235,0.08619125932455063
1702338821853120000,80.4131201171875,10.122684478759766,-0.038307227194309235,0.08619125932455063
1702338821953130500,80.51313061523437,10.160991668701172,-0.038307227194309235,0.08619125932455063
1702338822053115400,80.61311547851562,10.160991668701172,-0.028730420395731926,0.09576806426048279
1702338822153133600,80.71313354492187,10.160991668701172,-0.028730420395731926,0.09576806426048279
1702338822253131000,80.81313110351563,10.132261276245117,-0.038307227194309235,0.08619125932455063
1702338822353123600,80.91312353515625,10.15141487121582,-0.028730420395731926,0.09576806426048279
1702338822453142500,81.013142578125,10.160991668701172,-0.038307227194309235,0.09576806426048279
1702338822553126000,81.1131259765625,10.132261276245117,-0.047884032130241394,0.09576806426048279
1702338822653127400,81.21312744140624,10.141838073730469,-0.047884032130241394,0.08619125932455063
1702338822753112300,81.3131123046875,10.132261276245117,-0.047884032130241394,0.10534487664699554
1702338822853130500,81.41313061523438,10.160991668701172,-0.038307227194309235,0.09576806426048279
1702338822953112800,81.51311279296876,10.132261276245117,-0.038307227194309235,0.08619125932455063
1702338823053131500,81.61313159179687,10.15141487121582,-0.028730420395731926,0.09576806426048279
1702338823153116000,81.71311596679688,10.160991668701172,-0.047884032130241394,0.09576806426048279
1702338823253134000,81.81313403320313,10.15141487121582,-0.047884032130241394,0.09576806426048279
1702338823353120000,81.9131201171875,10.15141487121582,-0.028730420395731926,0.1149216815829277
1702338823453113300,82.01311328125,10.160991668701172,-0.028730420395731926,0.09576806426048279
1702338823553123000,82.113123046875,10.141838073730469,-0.05746084079146385,0.1149216815829277
1702338823653116000,82.21311596679688,10.160991668701172,-0.038307227194309235,0.09576806426048279
1702338823753132500,82.31313256835938,10.15141487121582,-0.047884032130241394,0.1149216815829277
1702338823853112800,82.41311279296875,10.132261276245117,-0.038307227194309235,0.09576806426048279
1702338823953129000,82.51312890625,10.113107681274414,-0.038307227194309235,0.1149216815829277
1702338824053125000,82.613125,10.15141487121582,-0.038307227194309235,0.09576806426048279
1702338824153149700,82.71314965820312,10.141838073730469,-0.019153613597154617,0.10534487664699554
1702338824253138200,82.81313818359375,10.160991668701172,-0.047884032130241394,0.09576806426048279
1702338824353127400,82.91312744140625,10.141838073730469,-0.047884032130241394,0.09576806426048279
1702338824453141500,83.0131416015625,10.180145263671875,-0.047884032130241394,0.10534487664699554
1702338824553128400,83.11312841796875,10.141838073730469,-0.028730420395731926,0.09576806426048279
1702338824653148200,83.21314819335937,10.15141487121582,-0.047884032130241394,0.08619125932455063
1702338824753131000,83.31313110351563,10.132261276245117,-0.06703764945268631,0.09576806426048279
1702338824853129500,83.41312939453125,10.141838073730469,-0.028730420395731926,0.09576806426048279
1702338824953115000,83.51311499023437,10.160991668701172,-0.028730420395731926,0.10534487664699554
1702338825053131000,83.61313110351563,10.160991668701172,-0.047884032130241394,0.09576806426048279
1702338825153117400,83.71311743164063,10.170568466186523,-0.028730420395731926,0.10534487664699554
1702338825253429500,83.81342944335937,10.141838073730469,-0.047884032130241394,0.08619125932455063
1702338825353143000,83.91314306640625,10.170568466186523,-0.047884032130241394,0.09576806426048279
1702338825453125000,84.013125,10.15141487121582,-0.05746084079146385,0.10534487664699554
1702338825553141500,84.1131416015625,10.15141487121582,-0.028730420395731926,0.09576806426048279
1702338825653131500,84.21313159179688,10.132261276245117,-0.047884032130241394,0.09576806426048279
1702338825753146600,84.31314672851562,10.141838073730469,-0.047884032130241394,0.10534487664699554
1702338825853120500,84.41312060546875,10.15141487121582,-0.028730420395731926,0.10534487664699554
1702338825953134000,84.51313403320313,10.160991668701172,-0.047884032130241394,0.09576806426048279
1702338826053134600,84.61313452148437,10.141838073730469,-0.038307227194309235,0.10534487664699554
1702338826153156000,84.71315600585937,10.160991668701172,-0.038307227194309235,0.09576806426048279
1702338826253139700,84.8131396484375,10.15141487121582,-0.038307227194309235,0.09576806426048279
1702338826353126400,84.91312646484376,10.160991668701172,-0.038307227194309235,0.10534487664699554
1702338826453142500,85.013142578125,10.15141487121582,-0.019153613597154617,0.09576806426048279
1702338826553127000,85.113126953125,10.170568466186523,-0.038307227194309235,0.10534487664699554
1702338826653143600,85.2131435546875,10.15141487121582,-0.05746084079146385,0.09576806426048279
1702338826753130000,85.3131298828125,10.160991668701172,-0.038307227194309235,0.09576806426048279
1702338826853132500,85.41313256835937,10.15141487121582,-0.019153613597154617,0.10534487664699554
1702338826953130000,85.5131298828125,10.160991668701172,-0.038307227194309235,0.07661445438861847
1702338827053149200,85.61314916992187,10.15141487121582,-0.047884032130241394,0.09576806426048279
1702338827153132500,85.71313256835937,10.132261276245117,-0.028730420395731926,0.08619125932455063
1702338827253147100,85.81314721679688,10.160991668701172,-0.019153613597154617,0.10534487664699554
1702338827353139200,85.91313916015625,10.132261276245117,-0.019153613597154617,0.10534487664699554
1702338827453121500,86.01312158203125,10.141838073730469,-0.038307227194309235,0.10534487664699554
1702338827553123000,86.113123046875,10.160991668701172,-0.038307227194309235,0.1149216815829277
1702338827653108000,86.21310791015625,10.141838073730469,-0.028730420395731926,0.10534487664699554
1702338827753124000,86.3131240234375,10.15141487121582,-0.028730420395731926,0.10534487664699554
1702338827853113900,86.41311376953125,10.180145263671875,-0.019153613597154617,0.09576806426048279
1702338827953129500,86.51312939453125,10.15141487121582,-0.038307227194309235,0.08619125932455063
1702338828053121000,86.61312109375,10.180145263671875,-0.047884032130241394,0.08619125932455063
1702338828153154800,86.71315478515625,10.132261276245117,-0.019153613597154617,0.09576806426048279
1702338828253134000,86.81313403320313,10.160991668701172,-0.028730420395731926,0.09576806426048279
1702338828353118000,86.91311791992187,10.141838073730469,-0.028730420395731926,0.08619125932455063
1702338828453133600,87.01313354492187,10.180145263671875,-0.019153613597154617,0.09576806426048279
1702338828553127000,87.113126953125,10.141838073730469,-0.028730420395731926,0.09576806426048279
1702338828653145000,87.21314501953125,10.180145263671875,-0.038307227194309235,0.06703764945268631
1702338828753959700,87.31395971679687,10.160991668701172,-0.009576806798577309,0.08619125932455063
1702338828853134600,87.41313452148438,10.180145263671875,-0.028730420395731926,0.09576806426048279
1702338828953113300,87.51311328125,10.160991668701172,-0.047884032130241394,0.09576806426048279
1702338829053131000,87.61313110351563,10.141838073730469,-0.038307227194309235,0.08619125932455063
1702338829153116400,87.71311645507812,10.170568466186523,-0.038307227194309235,0.08619125932455063
1702338829253153300,87.8131533203125,10.160991668701172,-0.028730420395731926,0.10534487664699554
1702338829353137700,87.9131376953125,10.141838073730469,-0.028730420395731926,0.1149216815829277
1702338829453155300,88.0131552734375,10.180145263671875,-0.028730420395731926,0.09576806426048279
1702338829553121500,88.11312158203125,10.132261276245117,-0.038307227194309235,0.10534487664699554
1702338829653108000,88.21310791015625,10.160991668701172,-0.047884032130241394,0.09576806426048279
1702338829753137200,88.31313720703125,10.160991668701172,0,0.08619125932455063
1702338829853123600,88.41312353515625,10.170568466186523,0,0.09576806426048279
1702338829953128400,88.51312841796874,10.160991668701172,-0.019153613597154617,0.07661445438861847
1702338830053133000,88.61313305664062,10.170568466186523,-0.047884032130241394,0.09576806426048279
1702338830153146000,88.71314599609374,10.160991668701172,-0.028730420395731926,0.10534487664699554
1702338830253137700,88.8131376953125,10.160991668701172,-0.009576806798577309,0.08619125932455063
1702338830353124000,88.9131240234375,10.160991668701172,-0.028730420395731926,0.09576806426048279
1702338830453139200,89.01313916015626,10.15141487121582,-0.038307227194309235,0.10534487664699554
1702338830553116400,89.11311645507813,10.170568466186523,-0.009576806798577309,0.09576806426048279
1702338830653425200,89.21342504882813,10.15141487121582,-0.028730420395731926,0.09576806426048279
1702338830753130500,89.31313061523437,10.170568466186523,-0.028730420395731926,0.08619125932455063
1702338830853137700,89.4131376953125,10.170568466186523,-0.047884032130241394,0.09576806426048279
1702338830953114400,89.5131142578125,10.141838073730469,-0.028730420395731926,0.09576806426048279
1702338831053177900,89.613177734375,10.15141487121582,-0.028730420395731926,0.09576806426048279
1702338831153137700,89.7131376953125,10.170568466186523,-0.047884032130241394,0.10534487664699554
1702338831253143000,89.81314306640625,10.160991668701172,-0.019153613597154617,0.09576806426048279
1702338831353138700,89.913138671875,10.122684478759766,-0.038307227194309235,0.08619125932455063
1702338831453126400,90.01312646484375,10.132261276245117,-0.038307227194309235,0.09576806426048279
1702338831553141500,90.1131416015625,10.122684478759766,-0.009576806798577309,0.09576806426048279
1702338831653130500,90.21313061523438,10.141838073730469,-0.047884032130241394,0.08619125932455063
1702338831753137700,90.3131376953125,10.141838073730469,-0.05746084079146385,0.09576806426048279
1702338831853942500,90.41394262695313,10.141838073730469,-0.047884032130241394,0.09576806426048279
1702338831953133000,90.51313305664063,10.180145263671875,-0.019153613597154617,0.09576806426048279
1702338832053113900,90.61311376953125,10.141838073730469,-0.028730420395731926,0.08619125932455063
1702338832153130000,90.7131298828125,10.15141487121582,-0.047884032130241394,0.12449848651885986
1702338832253136100,90.81313623046876,10.132261276245117,-0.019153613597154617,0.1149216815829277
1702338832353122000,90.9131220703125,10.160991668701172,-0.038307227194309235,0.09576806426048279
1702338832453136600,91.01313671875,10.122684478759766,-0.038307227194309235,0.10534487664699554
1702338832553127000,91.113126953125,10.160991668701172,-0.038307227194309235,0.09576806426048279
1702338832653145600,91.2131455078125,10.15141487121582,-0.028730420395731926,0.08619125932455063
1702338832753122000,91.3131220703125,10.160991668701172,-0.05746084079146385,0.10534487664699554
1702338832853127400,91.41312744140625,10.141838073730469,-0.028730420395731926,0.09576806426048279
1702338832953117000,91.51311694335938,10.15141487121582,-0.019153613597154617,0.09576806426048279
1702338833053126400,91.61312646484375,10.122684478759766,-0.038307227194309235,0.10534487664699554
1702338833153132000,91.71313208007813,10.141838073730469,-0.038307227194309235,0.10534487664699554
1702338833253150700,91.81315063476562,10.15141487121582,-0.019153613597154617,0.10534487664699554
1702338833353137700,91.9131376953125,10.132261276245117,-0.06703764945268631,0.1149216815829277
1702338833453127400,92.01312744140625,10.15141487121582,-0.028730420395731926,0.08619125932455063
1702338833553121500,92.11312158203125,10.170568466186523,-0.038307227194309235,0.08619125932455063
1702338833653109500,92.21310961914062,10.15141487121582,-0.019153613597154617,0.08619125932455063
1702338833753147600,92.31314770507812,10.15141487121582,-0.038307227194309235,0.09576806426048279
1702338833853116400,92.41311645507812,10.160991668701172,-0.028730420395731926,0.09576806426048279
1702338833953128400,92.51312841796874,10.160991668701172,-0.019153613597154617,0.08619125932455063
1702338834053112800,92.61311279296875,10.15141487121582,-0.028730420395731926,0.08619125932455063
1702338834153131500,92.71313159179688,10.170568466186523,-0.019153613597154617,0.10534487664699554
1702338834253121000,92.81312109375,10.180145263671875,-0.028730420395731926,0.09576806426048279
1702338834353157600,92.91315771484375,10.141838073730469,-0.047884032130241394,0.10534487664699554
1702338834453141500,93.0131416015625,10.160991668701172,-0.028730420395731926,0.10534487664699554
1702338834553105400,93.11310546875,10.160991668701172,-0.019153613597154617,0.09576806426048279
1702338834653124000,93.2131240234375,10.170568466186523,-0.019153613597154617,0.09576806426048279
1702338834753108500,93.3131083984375,10.15141487121582,-0.047884032130241394,0.09576806426048279
1702338834853131500,93.41313159179687,10.141838073730469,-0.06703764945268631,0.10534487664699554
1702338834953111800,93.51311181640625,10.160991668701172,-0.047884032130241394,0.09576806426048279
1702338835053132500,93.61313256835938,10.170568466186523,-0.047884032130241394,0.10534487664699554
1702338835153113900,93.71311376953125,10.141838073730469,-0.047884032130241394,0.09576806426048279
1702338835253131000,93.81313110351563,10.122684478759766,-0.028730420395731926,0.10534487664699554
1702338835353117000,93.91311694335937,10.132261276245117,-0.047884032130241394,0.09576806426048279
1702338835453116400,94.01311645507812,10.170568466186523,-0.028730420395731926,0.09576806426048279
1702338835553144600,94.11314453125,10.170568466186523,-0.038307227194309235,0.10534487664699554
1702338835653123000,94.213123046875,10.15141487121582,-0.038307227194309235,0.10534487664699554
1702338835753148200,94.31314819335938,10.15141487121582,-0.028730420395731926,0.09576806426048279
1702338835853126000,94.4131259765625,10.160991668701172,-0.038307227194309235,0.10534487664699554
1702338835953128000,94.5131279296875,10.180145263671875,-0.028730420395731926,0.10534487664699554
1702338836053113900,94.61311376953125,10.160991668701172,-0.028730420395731926,0.09576806426048279
1702338836153140200,94.71314013671875,10.141838073730469,-0.038307227194309235,0.10534487664699554
1702338836253136100,94.81313623046876,10.15141487121582,-0.028730420395731926,0.10534487664699554
1702338836353134000,94.91313403320312,10.15141487121582,-0.038307227194309235,0.07661445438861847
1702338836453120500,95.01312060546876,10.160991668701172,-0.038307227194309235,0.09576806426048279
1702338836553119500,95.11311938476562,10.160991668701172,-0.038307227194309235,0.1149216815829277
1702338836653145000,95.21314501953125,10.122684478759766,-0.05746084079146385,0.08619125932455063
1702338836753127400,95.31312744140625,10.170568466186523,-0.028730420395731926,0.09576806426048279
1702338836853146600,95.41314672851563,10.160991668701172,-0.038307227194309235,0.08619125932455063
1702338836953111800,95.51311181640625,10.141838073730469,-0.028730420395731926,0.10534487664699554
1702338837053144600,95.61314453125,10.160991668701172,-0.047884032130241394,0.10534487664699554
1702338837153135000,95.71313500976562,10.141838073730469,-0.028730420395731926,0.08619125932455063
1702338837253155300,95.8131552734375,10.141838073730469,-0.028730420395731926,0.09576806426048279
1702338837353137200,95.91313720703126,10.15141487121582,-0.05746084079146385,0.09576806426048279
1702338837453113900,96.01311376953124,10.141838073730469,-0.019153613597154617,0.09576806426048279
1702338837553141500,96.1131416015625,10.132261276245117,-0.038307227194309235,0.1149216815829277
1702338837653126000,96.2131259765625,10.170568466186523,-0.028730420395731926,0.09576806426048279
1702338837753134000,96.31313403320313,10.170568466186523,-0.028730420395731926,0.08619125932455063
1702338837853135000,96.41313500976563,10.141838073730469,-0.038307227194309235,0.08619125932455063
1702338837953126000,96.5131259765625,10.160991668701172,-0.047884032130241394,0.09576806426048279
1702338838053113300,96.61311328125,10.141838073730469,-0.038307227194309235,0.09576806426048279
1702338838153130500,96.71313061523438,10.160991668701172,-0.028730420395731926,0.09576806426048279
1702338838253123600,96.81312353515625,10.15141487121582,-0.028730420395731926,0.09576806426048279
1702338838353156600,96.91315649414062,10.122684478759766,-0.038307227194309235,0.10534487664699554
1702338838453138700,97.013138671875,10.15141487121582,-0.019153613597154617,0.09576806426048279
1702338838553126000,97.1131259765625,10.132261276245117,-0.028730420395731926,0.09576806426048279
1702338838653141000,97.21314111328125,10.15141487121582,-0.038307227194309235,0.08619125932455063
1702338838753126400,97.31312646484375,10.132261276245117,-0.047884032130241394,0.09576806426048279
1702338838853151700,97.41315185546875,10.141838073730469,-0.038307227194309235,0.10534487664699554
1702338838953191400,97.51319140625,10.160991668701172,-0.028730420395731926,0.09576806426048279
1702338839053129000,97.61312890625,10.15141487121582,-0.038307227194309235,0.09576806426048279
1702338839153132500,97.71313256835937,10.160991668701172,-0.028730420395731926,0.10534487664699554
1702338839253155300,97.8131552734375,10.132261276245117,-0.047884032130241394,0.1149216815829277
1702338839353118000,97.91311791992187,10.180145263671875,-0.038307227194309235,0.09576806426048279
1702338839453113300,98.01311328125,10.141838073730469,-0.028730420395731926,0.10534487664699554
1702338839553120000,98.1131201171875,10.15141487121582,-0.028730420395731926,0.07661445438861847
1702338839653123000,98.213123046875,10.141838073730469,-0.047884032130241394,0.10534487664699554
1702338839753175300,98.31317529296875,10.15141487121582,-0.028730420395731926,0.10534487664699554
1702338839853135600,98.41313549804687,10.15141487121582,-0.047884032130241394,0.09576806426048279
1702338839953127400,98.51312744140625,10.170568466186523,-0.047884032130241394,0.10534487664699554
1702338840053122000,98.6131220703125,10.15141487121582,0,0.09576806426048279
1702338840153131500,98.71313159179688,10.15141487121582,-0.047884032130241394,0.07661445438861847
1702338840253114400,98.8131142578125,10.132261276245117,-0.038307227194309235,0.08619125932455063
1702338840353144000,98.91314404296875,10.15141487121582,-0.05746084079146385,0.09576806426048279
1702338840453139200,99.01313916015626,10.132261276245117,-0.038307227194309235,0.10534487664699554
1702338840553130000,99.1131298828125,10.15141487121582,-0.06703764945268631,0.08619125932455063
1702338840653124600,99.21312451171875,10.15141487121582,-0.028730420395731926,0.09576806426048279
1702338840753107500,99.313107421875,10.141838073730469,-0.028730420395731926,0.10534487664699554
1702338840853124000,99.4131240234375,10.170568466186523,-0.019153613597154617,0.09576806426048279
1702338840953112300,99.5131123046875,10.170568466186523,-0.038307227194309235,0.08619125932455063
1702338841053265000,99.61326489257813,10.170568466186523,-0.038307227194309235,0.08619125932455063
1702338841153135600,99.71313549804688,10.15141487121582,-0.028730420395731926,0.09576806426048279
1702338841253443600,99.81344360351562,10.160991668701172,-0.009576806798577309,0.10534487664699554
1702338841353139200,99.91313916015625,10.132261276245117,-0.047884032130241394,0.12449848651885986
1702338841453124000,100.0131240234375,10.132261276245117,-0.05746084079146385,0.1149216815829277
1702338841553143600,100.1131435546875,10.141838073730469,-0.047884032130241394,0.09576806426048279
1702338841653122600,100.21312255859375,10.141838073730469,-0.05746084079146385,0.10534487664699554
1702338841753145600,100.3131455078125,10.15141487121582,-0.05746084079146385,0.10534487664699554
1702338841853128000,100.4131279296875,10.15141487121582,-0.047884032130241394,0.08619125932455063
1702338841953129500,100.51312939453125,10.122684478759766,-0.038307227194309235,0.10534487664699554
1702338842053111300,100.613111328125,10.15141487121582,-0.019153613597154617,0.10534487664699554
1702338842153129000,100.71312890625,10.180145263671875,-0.047884032130241394,0.10534487664699554
1702338842253122600,100.81312255859375,10.141838073730469,-0.019153613597154617,0.09576806426048279
1702338842353151700,100.91315185546875,10.15141487121582,-0.028730420395731926,0.10534487664699554
1702338842453140200,101.01314013671875,10.160991668701172,-0.038307227194309235,0.10534487664699554
1702338842553126000,101.1131259765625,10.141838073730469,-0.038307227194309235,0.09576806426048279
1702338842653138200,101.21313818359376,10.160991668701172,-0.047884032130241394,0.1149216815829277
1702338842753129500,101.31312939453124,10.132261276245117,-0.038307227194309235,0.09576806426048279
1702338842853126000,101.4131259765625,10.132261276245117,-0.047884032130241394,0.09576806426048279
1702338842953111300,101.513111328125,10.141838073730469,-0.038307227194309235,0.09576806426048279
1702338843053130500,101.61313061523437,10.160991668701172,-0.019153613597154617,0.09576806426048279
1702338843153131000,101.71313110351562,10.160991668701172,-0.028730420395731926,0.09576806426048279
1702338843253146600,101.81314672851562,10.141838073730469,-0.038307227194309235,0.09576806426048279
1702338843353162200,101.91316235351563,10.180145263671875,-0.038307227194309235,0.08619125932455063
1702338843453177300,102.01317724609375,10.141838073730469,-0.028730420395731926,0.06703764945268631
1702338843553121000,102.11312109375,10.15141487121582,-0.009576806798577309,0.08619125932455063
1702338843653113900,102.21311376953125,10.132261276245117,-0.047884032130241394,0.09576806426048279
1702338843753144000,102.31314404296874,10.15141487121582,-0.038307227194309235,0.08619125932455063
1702338843853128000,102.4131279296875,10.141838073730469,-0.038307227194309235,0.09576806426048279
1702338843953126000,102.5131259765625,10.160991668701172,-0.038307227194309235,0.09576806426048279
1702338844053111300,102.613111328125,10.141838073730469,-0.028730420395731926,0.1149216815829277
1702338844153138200,102.71313818359376,10.170568466186523,-0.028730420395731926,0.10534487664699554
1702338844253136600,102.81313671875,10.180145263671875,-0.047884032130241394,0.09576806426048279
1702338844353151700,102.91315185546875,10.132261276245117,-0.038307227194309235,0.10534487664699554
1702338844453135600,103.01313549804688,10.160991668701172,-0.028730420395731926,0.06703764945268631
1702338844553122600,103.11312255859374,10.15141487121582,-0.038307227194309235,0.09576806426048279
1702338844653143600,103.2131435546875,10.170568466186523,-0.028730420395731926,0.09576806426048279
1702338844753129000,103.31312890625,10.132261276245117,-0.028730420395731926,0.10534487664699554
1702338844853130500,103.41313061523438,10.160991668701172,-0.028730420395731926,0.09576806426048279
1702338844953109500,103.51310961914062,10.15141487121582,-0.028730420395731926,0.08619125932455063
1702338845053148200,103.61314819335938,10.160991668701172,-0.038307227194309235,0.09576806426048279
1702338845153133600,103.71313354492187,10.160991668701172,-0.019153613597154617,0.09576806426048279
1702338845253150700,103.81315063476562,10.15141487121582,-0.038307227194309235,0.09576806426048279
1702338845353134600,103.91313452148438,10.160991668701172,-0.028730420395731926,0.08619125932455063
1702338845453153800,104.01315380859376,10.15141487121582,-0.028730420395731926,0.10534487664699554
1702338845553140200,104.11314013671876,10.160991668701172,-0.019153613597154617,0.09576806426048279
1702338845653126400,104.21312646484375,10.141838073730469,-0.028730420395731926,0.09576806426048279
1702338845753118500,104.31311840820312,10.15141487121582,-0.028730420395731926,0.08619125932455063
1702338845853107500,104.413107421875,10.170568466186523,-0.019153613597154617,0.07661445438861847
1702338845953126400,104.51312646484375,10.132261276245117,-0.019153613597154617,0.09576806426048279
1702338846053112300,104.6131123046875,10.160991668701172,-0.028730420395731926,0.08619125932455063
1702338846153135000,104.71313500976562,10.160991668701172,-0.009576806798577309,0.10534487664699554
1702338846253131500,104.81313159179687,10.141838073730469,-0.028730420395731926,0.09576806426048279
1702338846353133600,104.91313354492188,10.160991668701172,-0.047884032130241394,0.09576806426048279
1702338846453118500,105.01311840820313,10.132261276245117,-0.047884032130241394,0.10534487664699554
1702338846553104000,105.11310375976562,10.122684478759766,-0.028730420395731926,0.10534487664699554
1702338846653128400,105.21312841796875,10.141838073730469,-0.028730420395731926,0.09576806426048279
1702338846753130500,105.31313061523437,10.180145263671875,-0.019153613597154617,0.08619125932455063
1702338846853147600,105.41314770507813,10.122684478759766,-0.047884032130241394,0.12449848651885986
1702338846953126400,105.51312646484375,10.170568466186523,-0.028730420395731926,0.10534487664699554
1702338847053146000,105.61314599609375,10.141838073730469,-0.028730420395731926,0.09576806426048279
1702338847153130500,105.71313061523438,10.15141487121582,-0.038307227194309235,0.09576806426048279
1702338847253146000,105.81314599609375,10.141838073730469,-0.028730420395731926,0.10534487664699554
1702338847353134600,105.91313452148438,10.132261276245117,-0.047884032130241394,0.10534487664699554
1702338847453157000,106.0131572265625,10.160991668701172,-0.05746084079146385,0.10534487664699554
1702338847553139700,106.1131396484375,10.15141487121582,-0.038307227194309235,0.09576806426048279
1702338847653116400,106.21311645507812,10.122684478759766,-0.038307227194309235,0.09576806426048279
1702338847753148200,106.31314819335938,10.160991668701172,-0.019153613597154617,0.09576806426048279
1702338847853111300,106.413111328125,10.132261276245117,-0.038307227194309235,0.10534487664699554
1702338847953123600,106.51312353515625,10.141838073730469,-0.009576806798577309,0.09576806426048279
1702338848053117400,106.61311743164063,10.160991668701172,-0.047884032130241394,0.07661445438861847
1702338848153148700,106.71314868164062,10.160991668701172,-0.038307227194309235,0.1149216815829277
1702338848253136100,106.81313623046876,10.132261276245117,-0.028730420395731926,0.10534487664699554
1702338848353150700,106.91315063476563,10.15141487121582,-0.019153613597154617,0.07661445438861847
1702338848453141000,107.01314111328125,10.180145263671875,-0.019153613597154617,0.10534487664699554
1702338848553962800,107.11396264648438,10.160991668701172,-0.038307227194309235,0.09576806426048279
1702338848653140200,107.21314013671875,10.160991668701172,-0.028730420395731926,0.09576806426048279
1702338848753126400,107.31312646484375,10.160991668701172,-0.028730420395731926,0.08619125932455063
1702338848853153800,107.41315380859375,10.15141487121582,-0.028730420395731926,0.10534487664699554
1702338848953111800,107.51311181640625,10.141838073730469,-0.028730420395731926,0.10534487664699554
1702338849053127400,107.61312744140625,10.15141487121582,-0.028730420395731926,0.10534487664699554
1702338849153122000,107.7131220703125,10.170568466186523,-0.019153613597154617,0.08619125932455063
1702338849253152800,107.81315283203125,10.15141487121582,-0.019153613597154617,0.07661445438861847
1702338849353136000,107.91313623046875,10.160991668701172,-0.038307227194309235,0.08619125932455063
1702338849453154800,108.01315478515625,10.122684478759766,-0.028730420395731926,0.10534487664699554
1702338849553143600,108.1131435546875,10.15141487121582,-0.028730420395731926,0.10534487664699554
1702338849653128000,108.2131279296875,10.15141487121582,-0.028730420395731926,0.10534487664699554
1702338849753143000,108.31314306640625,10.132261276245117,-0.05746084079146385,0.10534487664699554
1702338849853129000,108.41312890625,10.170568466186523,-0.028730420395731926,0.09576806426048279
1702338849953124000,108.5131240234375,10.160991668701172,-0.038307227194309235,0.09576806426048279
1702338850053111800,108.61311181640625,10.132261276245117,-0.038307227194309235,0.10534487664699554
1702338850153128400,108.71312841796875,10.122684478759766,-0.047884032130241394,0.08619125932455063
1702338850253121000,108.81312109375,10.170568466186523,-0.047884032130241394,0.08619125932455063
1702338850353147100,108.91314721679687,10.15141487121582,-0.028730420395731926,0.09576806426048279
1702338850453117400,109.01311743164062,10.132261276245117,-0.047884032130241394,0.10534487664699554
1702338850553104000,109.11310375976562,10.160991668701172,-0.047884032130241394,0.1149216815829277
1702338850653124000,109.2131240234375,10.141838073730469,-0.038307227194309235,0.1149216815829277
1702338850753106400,109.3131064453125,10.141838073730469,-0.047884032130241394,0.10534487664699554
1702338850853127400,109.41312744140625,10.122684478759766,-0.038307227194309235,0.08619125932455063
1702338850953128400,109.51312841796874,10.15141487121582,-0.047884032130241394,0.1149216815829277
1702338851053169400,109.61316943359375,10.132261276245117,-0.038307227194309235,0.09576806426048279
1702338851153128400,109.71312841796875,10.15141487121582,-0.028730420395731926,0.09576806426048279
1702338851253427200,109.81342724609375,10.160991668701172,-0.038307227194309235,0.08619125932455063
1702338851353121500,109.91312158203125,10.15141487121582,-0.06703764945268631,0.09576806426048279
1702338851453146000,110.01314599609375,10.160991668701172,-0.038307227194309235,0.09576806426048279
1702338851553137200,110.11313720703124,10.170568466186523,-0.028730420395731926,0.09576806426048279
1702338851654170000,110.21417016601562,10.15141487121582,-0.047884032130241394,0.1149216815829277
1702338851753144600,110.31314453125,10.15141487121582,-0.038307227194309235,0.10534487664699554
1702338851853125000,110.413125,10.15141487121582,-0.047884032130241394,0.1149216815829277
1702338851953123600,110.51312353515625,10.113107681274414,-0.038307227194309235,0.10534487664699554
1702338852053111300,110.613111328125,10.141838073730469,-0.019153613597154617,0.09576806426048279
1702338852153127000,110.713126953125,10.180145263671875,-0.038307227194309235,0.10534487664699554
1702338852253113900,110.81311376953126,10.122684478759766,-0.047884032130241394,0.10534487664699554
1702338852353159700,110.91315966796876,10.141838073730469,-0.047884032130241394,0.10534487664699554
1702338852453135600,111.01313549804688,10.170568466186523,-0.047884032130241394,0.12449848651885986
1702338852553151700,111.11315185546874,10.122684478759766,-0.028730420395731926,0.09576806426048279
1702338852653132000,111.21313208007813,10.180145263671875,-0.019153613597154617,0.09576806426048279
1702338852753128400,111.31312841796876,10.15141487121582,-0.028730420395731926,0.09576806426048279
1702338852853146000,111.41314599609375,10.141838073730469,-0.028730420395731926,0.09576806426048279
1702338852953111800,111.51311181640625,10.170568466186523,-0.019153613597154617,0.09576806426048279
1702338853053124600,111.61312451171875,10.122684478759766,-0.047884032130241394,0.08619125932455063
1702338853153123000,111.713123046875,10.141838073730469,-0.038307227194309235,0.10534487664699554
1702338853253150700,111.81315063476562,10.160991668701172,-0.019153613597154617,0.09576806426048279
1702338853353133000,111.91313305664063,10.170568466186523,-0.038307227194309235,0.10534487664699554
1702338853453156600,112.01315649414063,10.141838073730469,-0.038307227194309235,0.09576806426048279
1702338853553125000,112.113125,10.141838073730469,-0.047884032130241394,0.09576806426048279
1702338853653109500,112.21310961914062,10.132261276245117,-0.028730420395731926,0.10534487664699554
1702338853753122600,112.31312255859375,10.132261276245117,-0.047884032130241394,0.10534487664699554
1702338853853111800,112.41311181640626,10.141838073730469,-0.05746084079146385,0.10534487664699554
1702338853953127000,112.513126953125,10.15141487121582,-0.038307227194309235,0.10534487664699554
1702338854053115000,112.61311499023438,10.132261276245117,-0.047884032130241394,0.09576806426048279
1702338854153131500,112.71313159179688,10.15141487121582,-0.038307227194309235,0.09576806426048279
1702338854253122600,112.81312255859375,10.141838073730469,-0.038307227194309235,0.09576806426048279
1702338854353140200,112.91314013671875,10.170568466186523,-0.038307227194309235,0.08619125932455063
1702338854453124600,113.01312451171874,10.15141487121582,-0.038307227194309235,0.09576806426048279
1702338854553140700,113.113140625,10.180145263671875,-0.028730420395731926,0.10534487664699554
1702338854653130000,113.2131298828125,10.170568466186523,-0.038307227194309235,0.09576806426048279
1702338854753122000,113.3131220703125,10.160991668701172,-0.028730420395731926,0.10534487664699554
1702338854853131500,113.41313159179687,10.170568466186523,-0.038307227194309235,0.10534487664699554
1702338854953111300,113.513111328125,10.160991668701172,-0.028730420395731926,0.10534487664699554
1702338855053129000,113.61312890625,10.141838073730469,-0.038307227194309235,0.10534487664699554
1702338855153121000,113.71312109375,10.15141487121582,-0.038307227194309235,0.09576806426048279
1702338855253137700,113.8131376953125,10.15141487121582,-0.028730420395731926,0.1149216815829277
1702338855353122600,113.91312255859376,10.160991668701172,-0.047884032130241394,0.09576806426048279
1702338855453138200,114.01313818359375,10.132261276245117,-0.028730420395731926,0.08619125932455063
1702338855553124600,114.11312451171875,10.113107681274414,-0.038307227194309235,0.10534487664699554
1702338855653111300,114.213111328125,10.15141487121582,-0.038307227194309235,0.09576806426048279
1702338855753129000,114.31312890625,10.15141487121582,-0.038307227194309235,0.09576806426048279
1702338855853138200,114.41313818359374,10.122684478759766,-0.047884032130241394,0.1149216815829277
1702338855953124600,114.51312451171874,10.15141487121582,-0.019153613597154617,0.07661445438861847
1702338856053130500,114.61313061523437,10.15141487121582,-0.05746084079146385,0.09576806426048279
1702338856153145000,114.71314501953125,10.141838073730469,-0.019153613597154617,0.09576806426048279
1702338856253129500,114.81312939453124,10.141838073730469,-0.028730420395731926,0.10534487664699554
1702338856353152800,114.91315283203124,10.160991668701172,-0.019153613597154617,0.09576806426048279
1702338856453136100,115.01313623046875,10.160991668701172,-0.047884032130241394,0.08619125932455063
1702338856553155300,115.1131552734375,10.141838073730469,-0.038307227194309235,0.10534487664699554
1702338856653141000,115.21314111328125,10.15141487121582,-0.05746084079146385,0.10534487664699554
1702338856753128000,115.3131279296875,10.141838073730469,-0.047884032130241394,0.10534487664699554
1702338856853159200,115.4131591796875,10.160991668701172,-0.038307227194309235,0.09576806426048279
1702338856953115400,115.51311547851563,10.15141487121582,-0.019153613597154617,0.09576806426048279
1702338857053126400,115.61312646484375,10.15141487121582,-0.028730420395731926,0.09576806426048279
1702338857153111300,115.713111328125,10.122684478759766,-0.05746084079146385,0.09576806426048279
1702338857253150700,115.81315063476562,10.122684478759766,-0.038307227194309235,0.10534487664699554
1702338857353137200,115.91313720703126,10.15141487121582,-0.028730420395731926,0.08619125932455063
1702338857453169400,116.01316943359375,10.15141487121582,-0.028730420395731926,0.08619125932455063
1702338857553120500,116.11312060546875,10.15141487121582,-0.038307227194309235,0.09576806426048279
1702338857653103400,116.21310327148437,10.132261276245117,-0.047884032130241394,0.09576806426048279
1702338857753147100,116.31314721679688,10.132261276245117,-0.028730420395731926,0.10534487664699554
1702338857853142000,116.41314208984375,10.15141487121582,-0.019153613597154617,0.07661445438861847
1702338857953124000,116.5131240234375,10.160991668701172,-0.028730420395731926,0.09576806426048279
1702338858053109500,116.61310961914063,10.180145263671875,-0.038307227194309235,0.09576806426048279
1702338858153136600,116.71313671875,10.160991668701172,-0.047884032130241394,0.1149216815829277
1702338858253133600,116.81313354492187,10.160991668701172,-0.028730420395731926,0.10534487664699554
1702338858353150200,116.91315014648437,10.15141487121582,-0.038307227194309235,0.10534487664699554
1702338858453138200,117.01313818359375,10.141838073730469,-0.038307227194309235,0.1149216815829277
1702338858553156000,117.11315600585938,10.15141487121582,-0.038307227194309235,0.09576806426048279
1702338858653141500,117.2131416015625,10.15141487121582,-0.038307227194309235,0.09576806426048279
1702338858753126400,117.31312646484375,10.160991668701172,-0.038307227194309235,0.09576806426048279
1702338858853139200,117.41313916015625,10.141838073730469,-0.028730420395731926,0.10534487664699554
1702338858953109000,117.51310888671875,10.122684478759766,-0.047884032130241394,0.10534487664699554
1702338859053126400,117.61312646484375,10.132261276245117,-0.05746084079146385,0.12449848651885986
1702338859153122600,117.71312255859375,10.141838073730469,-0.047884032130241394,0.08619125932455063
1702338859253147100,117.81314721679688,10.160991668701172,-0.047884032130241394,0.1149216815829277
1702338859353135000,117.91313500976563,10.122684478759766,-0.038307227194309235,0.09576806426048279
1702338859453151200,118.01315112304688,10.122684478759766,-0.038307227194309235,0.10534487664699554
1702338859553134000,118.11313403320312,10.15141487121582,-0.028730420395731926,0.10534487664699554
1702338859653122600,118.21312255859375,10.141838073730469,-0.038307227194309235,0.08619125932455063
1702338859753142000,118.31314208984375,10.132261276245117,-0.028730420395731926,0.10534487664699554
1702338859853136100,118.41313623046875,10.122684478759766,-0.047884032130241394,0.10534487664699554
1702338859953124000,118.5131240234375,10.15141487121582,-0.028730420395731926,0.09576806426048279
1702338860053120500,118.61312060546875,10.170568466186523,-0.028730420395731926,0.09576806426048279
1702338860153145000,118.71314501953125,10.141838073730469,-0.047884032130241394,0.10534487664699554
1702338860253134600,118.81313452148437,10.141838073730469,-0.047884032130241394,0.1149216815829277
1702338860353152800,118.91315283203124,10.15141487121582,-0.028730420395731926,0.08619125932455063
1702338860453130000,119.0131298828125,10.160991668701172,-0.05746084079146385,0.09576806426048279
1702338860553156600,119.11315649414063,10.141838073730469,-0.05746084079146385,0.08619125932455063
1702338860653131000,119.21313110351562,10.132261276245117,-0.038307227194309235,0.09576806426048279
1702338860753124600,119.31312451171875,10.141838073730469,-0.028730420395731926,0.09576806426048279
1702338860853143600,119.4131435546875,10.141838073730469,-0.047884032130241394,0.10534487664699554
1702338860953109000,119.51310888671875,10.141838073730469,-0.038307227194309235,0.09576806426048279
1702338861053125600,119.61312573242188,10.15141487121582,-0.028730420395731926,0.08619125932455063
1702338861153112300,119.7131123046875,10.122684478759766,-0.028730420395731926,0.07661445438861847
1702338861253136100,119.81313623046876,10.15141487121582,-0.05746084079146385,0.09576806426048279
1702338861353135600,119.91313549804687,10.170568466186523,-0.038307227194309235,0.07661445438861847
1702338861453254400,120.01325439453124,10.170568466186523,-0.009576806798577309,0.08619125932455063
1702338861553135600,120.11313549804687,10.160991668701172,-0.047884032130241394,0.09576806426048279
1702338861653123000,120.213123046875,10.132261276245117,-0.028730420395731926,0.09576806426048279
1702338861753141500,120.3131416015625,10.15141487121582,-0.028730420395731926,0.10534487664699554
1702338861853184500,120.4131845703125,10.141838073730469,-0.019153613597154617,0.09576806426048279
1702338861953124000,120.5131240234375,10.15141487121582,-0.047884032130241394,0.10534487664699554
1702338862053116000,120.61311596679687,10.141838073730469,-0.038307227194309235,0.09576806426048279
1702338862153147600,120.71314770507813,10.15141487121582,-0.019153613597154617,0.09576806426048279
1702338862253112800,120.81311279296875,10.160991668701172,-0.019153613597154617,0.10534487664699554
1702338862353128400,120.91312841796875,10.15141487121582,-0.038307227194309235,0.1149216815829277
1702338862453113900,121.01311376953124,10.170568466186523,-0.038307227194309235,0.09576806426048279
1702338862553142500,121.113142578125,10.15141487121582,-0.047884032130241394,0.10534487664699554
1702338862653124600,121.21312451171875,10.141838073730469,-0.028730420395731926,0.08619125932455063
1702338862753121500,121.31312158203124,10.15141487121582,-0.038307227194309235,0.07661445438861847
1702338862853123600,121.41312353515625,10.160991668701172,-0.019153613597154617,0.08619125932455063
1702338862953115400,121.51311547851563,10.180145263671875,-0.028730420395731926,0.08619125932455063
1702338863053125600,121.61312573242188,10.160991668701172,-0.038307227194309235,0.09576806426048279
1702338863153119500,121.71311938476562,10.15141487121582,-0.038307227194309235,0.09576806426048279
1702338863253126400,121.81312646484375,10.170568466186523,-0.028730420395731926,0.08619125932455063
1702338863353119500,121.91311938476562,10.141838073730469,-0.05746084079146385,0.09576806426048279
1702338863453149200,122.01314916992187,10.15141487121582,-0.028730420395731926,0.10534487664699554
1702338863553116400,122.11311645507813,10.141838073730469,-0.047884032130241394,0.12449848651885986
1702338863653144000,122.21314404296875,10.122684478759766,-0.038307227194309235,0.09576806426048279
1702338863753128400,122.31312841796876,10.141838073730469,-0.038307227194309235,0.09576806426048279
1702338863853875700,122.41387573242187,10.15141487121582,-0.028730420395731926,0.10534487664699554
1702338863953124600,122.51312451171874,10.160991668701172,-0.047884032130241394,0.08619125932455063
